set_size,target_present,condition_type,corr_resp,thisN,thisTrialN,thisRepN,key_resp.keys,key_resp.corr,key_resp.rt,key_resp.duration,practice_loop.thisRepN,practice_loop.thisTrialN,practice_loop.thisN,practice_loop.thisIndex,formal_loop.thisRepN,formal_loop.thisTrialN,formal_loop.thisN,formal_loop.thisIndex,thisRow.t,notes,piloting,start.started,open_text.started,start_key.started,start.stopped,start_key.keys,start_key.rt,start_key.duration,instr_practice.started,prac_text.started,prac_key.started,instr_practice.stopped,prac_key.keys,prac_key.rt,prac_key.duration,fixation.started,fix_text.started,fixation.stopped,trial.started,key_resp.started,trial.stopped,practice_loop.key_resp.keys,practice_loop.key_resp.corr,feedback.started,fb_text.started,feedback.stopped,ITI.started,ITI_text.started,ITI.stopped,practice_loop.key_resp.rt,practice_loop.key_resp.duration,instr_formal.started,formal_text.started,formal_key.started,instr_formal.stopped,formal_key.keys,formal_key.rt,formal_key.duration,formal_loop.key_resp.keys,formal_loop.key_resp.corr,formal_loop.key_resp.rt,formal_loop.key_resp.duration,ITI_text.stopped,fix_text.stopped,thanks.started,thanks_text.started,thanks.stopped,participant,session,date,expName,expVersion,psychopyVersion,frameRate,expStart,
,,,,,,,,,,,,,,,,,,,,,False,0.00444450000031793,0.02783110000018496,0.02783110000018496,8.73829620000106,space,8.542121399999814,None,,,,,,,,,,,,,,,,,,,,,,,,,,,,,,,,,,,,,,,,190332,001,2026-04-16_10h43.17.905,midterm_project,,2026.1.1,59.82560835159888,2026-04-16 10h43.19.067647 +0800,
,,,,,,,,,,,,,,,,,,,,,,,,,,,,,8.738347399999839,8.746837000000596,8.746837000000596,19.806377000000793,space,11.046085600000879,None,,,,,,,,,,,,,,,,,,,,,,,,,,,,,,,,,190332,001,2026-04-16_10h43.17.905,midterm_project,,2026.1.1,59.82560835159888,2026-04-16 10h43.19.067647 +0800,
24,1,conjunction,right,0,0,0,None,0,,,0,0,0,4,,,,,19.942202199999883,,,,,,,,,,,,,,,,,19.896566900000835,19.942202199999883,20.322092899999916,20.480161299999963,20.501494500000263,22.320939200000794,None,0,22.321048600000722,22.35017770000013,23.82081450000078,23.820876900001167,23.838922700000694,24.32108150000022,,,,,,,,,,,,,,,,,,,190332,001,2026-04-16_10h43.17.905,midterm_project,,2026.1.1,59.82560835159888,2026-04-16 10h43.19.067647 +0800,
4,1,conjunction,right,1,1,0,right,1,1.5981570000003558,None,0,1,1,3,,,,,24.338469700000132,,,,,,,,,,,,,,,,,24.321466400000645,24.338469700000132,24.822815500001525,24.847814000000653,24.85658719999992,26.456873799999812,right,1,26.457123300000603,26.502192800000557,27.97014990000025,27.970195700001568,27.98653280000144,28.47193960000004,1.5981570000003558,None,,,,,,,,,,,,,,,,,190332,001,2026-04-16_10h43.17.905,midterm_project,,2026.1.1,59.82560835159888,2026-04-16 10h43.19.067647 +0800,
24,1,feature,right,2,2,0,right,1,1.2034336999986408,None,0,2,2,1,,,,,28.488423100001455,,,,,,,,,,,,,,,,,28.472407700000986,28.488423100001455,28.975197300000218,29.033085900000515,29.053633600000467,30.25943180000104,right,1,30.259558300000208,30.28578000000016,31.77006050000091,31.77015250000113,31.786164200000712,32.270546800000375,1.2034336999986408,None,,,,,,,,,,,,,,,,,190332,001,2026-04-16_10h43.17.905,midterm_project,,2026.1.1,59.82560835159888,2026-04-16 10h43.19.067647 +0800,
12,0,conjunction,left,3,3,0,None,0,,,0,3,3,5,,,,,32.28782130000036,,,,,,,,,,,,,,,,,32.27097330000106,32.28782130000036,32.77096850000089,32.82593150000139,32.83925400000044,34.76978220000092,None,0,34.76989170000161,34.788012800001525,36.26931650000006,36.269384700000955,36.28649140000016,36.77053890000025,,,,,,,,,,,,,,,,,,,190332,001,2026-04-16_10h43.17.905,midterm_project,,2026.1.1,59.82560835159888,2026-04-16 10h43.19.067647 +0800,
4,1,feature,right,4,4,0,right,1,0.8221933000004356,None,0,4,4,0,,,,,36.78686999999991,,,,,,,,,,,,,,,,,36.77114270000129,36.78686999999991,37.27037820000078,37.28820430000087,37.2994206000003,38.13692860000083,right,1,38.13704670000152,38.233072200000606,39.653078900000764,39.653162700000394,39.66934890000084,40.15391090000048,0.8221933000004356,None,,,,,,,,,,,,,,,,,190332,001,2026-04-16_10h43.17.905,midterm_project,,2026.1.1,59.82560835159888,2026-04-16 10h43.19.067647 +0800,
12,0,feature,left,5,5,0,left,1,0.8211522999990848,None,0,5,5,2,,,,,40.16926700000113,,,,,,,,,,,,,,,,,40.1544457,40.16926700000113,40.65279520000149,40.68477260000145,40.70347390000097,41.53765160000148,left,1,41.53773750000073,41.55418810000083,43.05188520000047,43.051982700000735,43.06962510000085,43.55147880000004,0.8211522999990848,None,,,,,,,,,,,,,,,,,190332,001,2026-04-16_10h43.17.905,midterm_project,,2026.1.1,59.82560835159888,2026-04-16 10h43.19.067647 +0800,
,,,,,,,,,,,,,,,,,,,,,,,,,,,,,,,,,,,,,,,,,,,,,,,,,,,,43.55170330000146,43.57128809999995,43.57128809999995,98.39709650000077,space,54.81977410000036,None,,,,,,,,,,190332,001,2026-04-16_10h43.17.905,midterm_project,,2026.1.1,59.82560835159888,2026-04-16 10h43.19.067647 +0800,
24,0,conjunction,left,0,0,0,right,0,0.9716906999983621,None,,,,,0,0,0,23,98.4255299000015,,,,,,,,,,,,,,,,,98.42076439999983,98.4255299000015,98.91169450000052,98.99613020000106,99.01739410000118,100.00257039999997,,,,,,100.00269730000036,100.01185080000141,100.4949703000002,,,,,,,,,,right,0,0.9716906999983621,None,100.51140980000127,,,,,190332,001,2026-04-16_10h43.17.905,midterm_project,,2026.1.1,59.82560835159888,2026-04-16 10h43.19.067647 +0800,
4,1,conjunction,right,1,1,0,left,0,0.4490249999998923,None,,,,,0,1,1,18,100.51140980000127,,,,,,,,,,,,,,,,,100.49543310000081,100.51140980000127,100.99467550000008,101.01932120000129,101.029028500001,101.4802509000001,,,,,,101.48039750000135,101.4944446999998,101.97734670000136,,,,,,,,,,left,0,0.4490249999998923,None,101.99346590000096,101.029028500001,,,,190332,001,2026-04-16_10h43.17.905,midterm_project,,2026.1.1,59.82560835159888,2026-04-16 10h43.19.067647 +0800,
4,0,feature,left,2,2,0,right,0,1.0702146000003268,None,,,,,0,2,2,27,101.99346590000096,,,,,,,,,,,,,,,,,101.97765790000085,101.99346590000096,102.47975300000144,102.50682710000001,102.51798229999986,103.59855820000121,,,,,,103.59876450000047,103.61175520000143,104.11051220000081,,,,,,,,,,right,0,1.0702146000003268,None,,102.51798229999986,,,,190332,001,2026-04-16_10h43.17.905,midterm_project,,2026.1.1,59.82560835159888,2026-04-16 10h43.19.067647 +0800,
12,0,feature,left,3,3,0,None,0,,,,,,,0,3,3,16,104.12700519999999,,,,,,,,,,,,,,,,,104.1108107,104.12700519999999,104.61103189999994,104.64773810000042,104.66053410000131,106.6115135,,,,,,106.61181570000008,106.62688800000069,107.11040460000004,,,,,,,,,,None,0,,,,,,,,190332,001,2026-04-16_10h43.17.905,midterm_project,,2026.1.1,59.82560835159888,2026-04-16 10h43.19.067647 +0800,
4,0,feature,left,4,4,0,None,0,,,,,,,0,4,4,15,107.12630530000024,,,,,,,,,,,,,,,,,107.11069780000071,107.12630530000024,107.61204560000078,107.63314010000067,107.64222550000159,109.6102604000007,,,,,,109.61038440000084,109.62652450000132,110.10986850000154,,,,,,,,,,None,0,,,,,,,,190332,001,2026-04-16_10h43.17.905,midterm_project,,2026.1.1,59.82560835159888,2026-04-16 10h43.19.067647 +0800,
4,1,conjunction,right,5,5,0,right,1,1.6285723000000871,None,,,,,0,5,5,30,110.12614300000132,,,,,,,,,,,,,,,,,110.11023569999998,110.12614300000132,110.61137880000024,110.63248440000098,110.64071460000014,112.2790999000008,,,,,,112.27930710000146,112.29361670000071,112.77921400000014,,,,,,,,,,right,1,1.6285723000000871,None,112.79514350000136,,,,,190332,001,2026-04-16_10h43.17.905,midterm_project,,2026.1.1,59.82560835159888,2026-04-16 10h43.19.067647 +0800,
24,0,conjunction,left,6,6,0,None,0,,,,,,,0,6,6,35,112.79514350000136,,,,,,,,,,,,,,,,,112.78006770000138,112.79514350000136,113.29440070000055,113.36894630000097,113.39056140000139,115.29204320000099,,,,,,115.29215770000155,115.30893430000106,115.79226960000051,,,,,,,,,,None,0,,,,,,,,190332,001,2026-04-16_10h43.17.905,midterm_project,,2026.1.1,59.82560835159888,2026-04-16 10h43.19.067647 +0800,
12,0,conjunction,left,7,7,0,left,1,1.1536828999996942,None,,,,,0,7,7,10,115.80875120000019,,,,,,,,,,,,,,,,,115.79264240000157,115.80875120000019,116.29252600000109,116.33579070000087,116.34879499999988,117.51330960000087,,,,,,117.51346000000012,117.52544190000117,118.00887169999987,,,,,,,,,,left,1,1.1536828999996942,None,118.02486830000089,,,,,190332,001,2026-04-16_10h43.17.905,midterm_project,,2026.1.1,59.82560835159888,2026-04-16 10h43.19.067647 +0800,
12,0,feature,left,8,8,0,left,1,0.17451310000069498,None,,,,,0,8,8,4,118.02486830000089,,,,,,,,,,,,,,,,,118.00915520000126,118.02486830000089,118.51198970000041,118.54789340000025,118.56045660000018,118.74495800000113,,,,,,118.74510030000056,118.75796320000154,119.24286310000025,,,,,,,,,,left,1,0.17451310000069498,None,119.25861830000031,118.56045660000018,,,,190332,001,2026-04-16_10h43.17.905,midterm_project,,2026.1.1,59.82560835159888,2026-04-16 10h43.19.067647 +0800,
24,0,feature,left,9,9,0,right,0,0.7885255000001052,None,,,,,0,9,9,17,119.25861830000031,,,,,,,,,,,,,,,,,119.24320970000008,119.25861830000031,119.7436185000006,119.79426570000032,119.81447819999994,120.61353620000045,,,,,,120.61365780000051,120.62450230000104,121.10892070000045,,,,,,,,,,right,0,0.7885255000001052,None,121.1253069000013,119.81447819999994,,,,190332,001,2026-04-16_10h43.17.905,midterm_project,,2026.1.1,59.82560835159888,2026-04-16 10h43.19.067647 +0800,
12,0,conjunction,left,10,10,0,None,0,,,,,,,0,10,10,22,121.1253069000013,,,,,,,,,,,,,,,,,121.1093587000014,121.1253069000013,121.60871469999984,121.66178730000138,121.67465790000097,123.62529370000084,,,,,,123.62542680000115,123.64172830000098,124.12649330000022,,,,,,,,,,None,0,,,,121.67465790000097,,,,190332,001,2026-04-16_10h43.17.905,midterm_project,,2026.1.1,59.82560835159888,2026-04-16 10h43.19.067647 +0800,
4,0,conjunction,left,11,11,0,None,0,,,,,,,0,11,11,21,124.1421749000001,,,,,,,,,,,,,,,,,124.12697130000015,124.1421749000001,124.62493570000152,124.6538915000001,124.66308130000107,126.62457180000092,,,,,,126.62470350000149,126.64126700000088,127.12402590000056,,,,,,,,,,None,0,,,,,,,,190332,001,2026-04-16_10h43.17.905,midterm_project,,2026.1.1,59.82560835159888,2026-04-16 10h43.19.067647 +0800,
24,0,feature,left,12,12,0,right,0,0.5109577000002901,None,,,,,0,12,12,5,127.14059040000029,,,,,,,,,,,,,,,,,127.12441790000048,127.14059040000029,127.62406170000031,127.66953550000107,127.69888930000161,128.2126446000002,,,,,,128.21277010000085,128.22341940000115,128.70802060000096,,,,,,,,,,right,0,0.5109577000002901,None,128.72402390000025,,,,,190332,001,2026-04-16_10h43.17.905,midterm_project,,2026.1.1,59.82560835159888,2026-04-16 10h43.19.067647 +0800,
12,1,conjunction,right,13,13,0,left,0,0.7003574999998818,None,,,,,0,13,13,19,128.72402390000025,,,,,,,,,,,,,,,,,128.7083756000011,128.72402390000025,129.20786360000056,129.2641259000011,129.27685900000142,129.9935811000014,,,,,,129.9937039000015,130.00671070000135,130.49339320000036,,,,,,,,,,left,0,0.7003574999998818,None,130.50915500000156,129.27685900000142,,,,190332,001,2026-04-16_10h43.17.905,midterm_project,,2026.1.1,59.82560835159888,2026-04-16 10h43.19.067647 +0800,
24,0,feature,left,14,14,0,right,0,0.4617469999993773,None,,,,,0,14,14,29,130.50915500000156,,,,,,,,,,,,,,,,,130.49400100000094,130.50915500000156,131.00699859999986,131.05919990000075,131.07973500000116,131.54656740000064,,,,,,131.54669130000002,131.5563406000001,132.04110460000084,,,,,,,,,,right,0,0.4617469999993773,None,132.05739920000087,,,,,190332,001,2026-04-16_10h43.17.905,midterm_project,,2026.1.1,59.82560835159888,2026-04-16 10h43.19.067647 +0800,
12,0,feature,left,15,15,0,left,1,0.935741399998733,None,,,,,0,15,15,28,132.05739920000087,,,,,,,,,,,,,,,,,132.04145020000033,132.05739920000087,132.5409012,132.58166690000144,132.59473960000105,133.5444378000011,,,,,,133.5445845000013,133.55666060000112,134.0410625000004,,,,,,,,,,left,1,0.935741399998733,None,134.05848610000066,132.59473960000105,,,,190332,001,2026-04-16_10h43.17.905,midterm_project,,2026.1.1,59.82560835159888,2026-04-16 10h43.19.067647 +0800,
4,0,conjunction,left,16,16,0,left,1,0.96695550000004,None,,,,,0,16,16,33,134.05848610000066,,,,,,,,,,,,,,,,,134.04152179999983,134.05848610000066,134.5578561000002,134.58427380000103,134.59334310000122,135.57668700000067,,,,,,135.57689860000028,135.5899212000004,136.0734511999999,,,,,,,,,,left,1,0.96695550000004,None,136.08982190000097,,,,,190332,001,2026-04-16_10h43.17.905,midterm_project,,2026.1.1,59.82560835159888,2026-04-16 10h43.19.067647 +0800,
4,0,conjunction,left,17,17,0,right,0,0.7666906000013114,None,,,,,0,17,17,9,136.08982190000097,,,,,,,,,,,,,,,,,136.0737734000013,136.08982190000097,136.5734678000008,136.60180159999982,136.61120910000136,137.39209140000094,,,,,,137.3922386000013,137.40621680000004,137.88961740000013,,,,,,,,,,right,0,0.7666906000013114,None,137.90563480000128,136.61120910000136,,,,190332,001,2026-04-16_10h43.17.905,midterm_project,,2026.1.1,59.82560835159888,2026-04-16 10h43.19.067647 +0800,
12,0,conjunction,left,18,18,0,left,1,0.6107452999985981,None,,,,,0,18,18,34,137.90563480000128,,,,,,,,,,,,,,,,,137.88989980000042,137.90563480000128,138.38936380000087,138.43433370000093,138.4468878000007,139.05911019999985,,,,,,139.0592370000013,139.07277050000084,139.5578086000005,,,,,,,,,,left,1,0.6107452999985981,None,139.5747879999999,138.4468878000007,,,,190332,001,2026-04-16_10h43.17.905,midterm_project,,2026.1.1,59.82560835159888,2026-04-16 10h43.19.067647 +0800,
12,1,conjunction,right,19,19,0,right,1,0.7241608999993332,None,,,,,0,19,19,7,139.5747879999999,,,,,,,,,,,,,,,,,139.55828570000085,139.5747879999999,140.07269570000062,140.1195459999999,140.13274620000084,140.85875699999997,,,,,,140.85888030000024,140.87219480000022,141.35624240000107,,,,,,,,,,right,1,0.7241608999993332,None,141.3726712000007,,,,,190332,001,2026-04-16_10h43.17.905,midterm_project,,2026.1.1,59.82560835159888,2026-04-16 10h43.19.067647 +0800,
4,0,feature,left,20,20,0,right,0,1.6115919000003487,None,,,,,0,20,20,3,141.3726712000007,,,,,,,,,,,,,,,,,141.35668930000065,141.3726712000007,141.85616400000072,141.8753488000002,141.88737010000114,143.50809120000122,,,,,,143.50823000000128,143.5219089000002,144.00673300000017,,,,,,,,,,right,0,1.6115919000003487,None,144.02242210000077,141.88737010000114,,,,190332,001,2026-04-16_10h43.17.905,midterm_project,,2026.1.1,59.82560835159888,2026-04-16 10h43.19.067647 +0800,
12,1,feature,right,21,21,0,left,0,1.5402451999998448,None,,,,,0,21,21,1,144.02242210000077,,,,,,,,,,,,,,,,,144.00725969999985,144.02242210000077,144.50863420000132,144.54149980000147,144.5559506999998,146.10788760000105,,,,,,146.10800860000018,146.1213443000015,146.60584870000093,,,,,,,,,,left,0,1.5402451999998448,None,146.6219232000003,,,,,190332,001,2026-04-16_10h43.17.905,midterm_project,,2026.1.1,59.82560835159888,2026-04-16 10h43.19.067647 +0800,
12,1,feature,right,22,22,0,None,0,,,,,,,0,22,22,13,146.6219232000003,,,,,,,,,,,,,,,,,146.60631960000137,146.6219232000003,147.10742420000133,147.14313870000115,147.15600030000132,149.12115870000162,,,,,,149.12126900000112,149.13792640000065,149.62113300000055,,,,,,,,,,None,0,,,,147.15600030000132,,,,190332,001,2026-04-16_10h43.17.905,midterm_project,,2026.1.1,59.82560835159888,2026-04-16 10h43.19.067647 +0800,
24,1,feature,right,23,23,0,right,1,1.163425200000347,None,,,,,0,23,23,26,149.63762490000045,,,,,,,,,,,,,,,,,149.62154340000052,149.63762490000045,150.12232910000057,150.19036360000064,150.21164150000004,151.37632680000024,,,,,,151.3764658,151.38771850000012,151.87342780000108,,,,,,,,,,right,1,1.163425200000347,None,151.88919560000068,,,,,190332,001,2026-04-16_10h43.17.905,midterm_project,,2026.1.1,59.82560835159888,2026-04-16 10h43.19.067647 +0800,
12,1,feature,right,24,24,0,None,0,,,,,,,0,24,24,25,151.88919560000068,,,,,,,,,,,,,,,,,151.87403070000073,151.88919560000068,152.3879160000015,152.43466460000127,152.45226189999994,154.38683740000124,,,,,,154.3869364000002,154.40244080000048,154.88997740000013,,,,,,,,,,None,0,,,,,,,,190332,001,2026-04-16_10h43.17.905,midterm_project,,2026.1.1,59.82560835159888,2026-04-16 10h43.19.067647 +0800,
24,0,conjunction,left,25,25,0,right,0,0.6454580000008718,None,,,,,0,25,25,11,154.9062498000003,,,,,,,,,,,,,,,,,154.89117670000087,154.9062498000003,155.38623670000015,155.46271930000148,155.48752109999987,156.14284600000065,,,,,,156.1430416000003,156.15323910000006,156.63690690000112,,,,,,,,,,right,0,0.6454580000008718,None,156.65337210000143,,,,,190332,001,2026-04-16_10h43.17.905,midterm_project,,2026.1.1,59.82560835159888,2026-04-16 10h43.19.067647 +0800,
4,1,conjunction,right,26,26,0,right,1,0.8003404999999475,None,,,,,0,26,26,6,156.65337210000143,,,,,,,,,,,,,,,,,156.63720240000112,156.65337210000143,157.1407431000007,157.16778400000112,157.17663960000027,157.98809660000006,,,,,,157.98821959999987,158.00390490000063,158.48692240000128,,,,,,,,,,right,1,0.8003404999999475,None,158.50338750000083,157.17663960000027,,,,190332,001,2026-04-16_10h43.17.905,midterm_project,,2026.1.1,59.82560835159888,2026-04-16 10h43.19.067647 +0800,
4,1,feature,right,27,27,0,right,1,1.6506012999998347,None,,,,,0,27,27,0,158.50338750000083,,,,,,,,,,,,,,,,,158.4873406000006,158.50338750000083,158.98882690000028,159.0102835000016,159.01913520000016,160.6745264000001,,,,,,160.67467970000143,160.68618590000005,161.1732918000016,,,,,,,,,,right,1,1.6506012999998347,None,161.18826230000013,159.01913520000016,,,,190332,001,2026-04-16_10h43.17.905,midterm_project,,2026.1.1,59.82560835159888,2026-04-16 10h43.19.067647 +0800,
4,1,feature,right,28,28,0,None,0,,,,,,,0,28,28,24,161.18826230000013,,,,,,,,,,,,,,,,,161.17388350000147,161.18826230000013,161.6720261999999,161.68809430000147,161.69671910000034,163.68576320000102,,,,,,163.68585580000035,163.70217709999997,164.1861097000001,,,,,,,,,,None,0,,,,161.69671910000034,,,,190332,001,2026-04-16_10h43.17.905,midterm_project,,2026.1.1,59.82560835159888,2026-04-16 10h43.19.067647 +0800,
24,1,conjunction,right,29,29,0,None,0,,,,,,,0,29,29,20,164.20268340000075,,,,,,,,,,,,,,,,,164.18640659999983,164.20268340000075,164.68593990000045,164.7586207000004,164.77964060000158,166.68555130000095,,,,,,166.68574100000114,166.7020949000016,167.1870123000008,,,,,,,,,,None,0,,,,,,,,190332,001,2026-04-16_10h43.17.905,midterm_project,,2026.1.1,59.82560835159888,2026-04-16 10h43.19.067647 +0800,
24,1,feature,right,30,30,0,right,1,0.9761322000013024,None,,,,,0,30,30,14,167.2020072000014,,,,,,,,,,,,,,,,,167.18759300000056,167.2020072000014,167.68614510000043,167.74411230000078,167.76443070000096,168.75670050000008,,,,,,168.75688100000116,168.76874640000096,169.25345190000007,,,,,,,,,,right,1,0.9761322000013024,None,169.2690599000016,,,,,190332,001,2026-04-16_10h43.17.905,midterm_project,,2026.1.1,59.82560835159888,2026-04-16 10h43.19.067647 +0800,
24,1,conjunction,right,31,31,0,right,1,0.6074197999987518,None,,,,,0,31,31,8,169.2690599000016,,,,,,,,,,,,,,,,,169.25389570000152,169.2690599000016,169.75454180000088,169.83769630000097,169.8598946000002,170.47495620000154,,,,,,170.47509910000008,170.48568740000155,170.9691655000006,,,,,,,,,,right,1,0.6074197999987518,None,170.9852471000013,169.8598946000002,,,,190332,001,2026-04-16_10h43.17.905,midterm_project,,2026.1.1,59.82560835159888,2026-04-16 10h43.19.067647 +0800,
24,1,conjunction,right,32,32,0,right,1,0.550177099999928,None,,,,,0,32,32,32,170.9852471000013,,,,,,,,,,,,,,,,,170.96953100000064,170.9852471000013,171.46962570000142,171.5406512999998,171.56163350000134,172.12357350000093,,,,,,172.12369650000073,172.13442560000112,172.61895950000144,,,,,,,,,,right,1,0.550177099999928,None,172.63532400000076,171.56163350000134,,,,190332,001,2026-04-16_10h43.17.905,midterm_project,,2026.1.1,59.82560835159888,2026-04-16 10h43.19.067647 +0800,
12,1,conjunction,right,33,33,0,left,0,0.2832619999990129,None,,,,,0,33,33,31,172.63532400000076,,,,,,,,,,,,,,,,,172.61947540000074,172.63532400000076,173.11880220000057,173.19283050000013,173.20619810000062,173.50568050000038,,,,,,173.50582740000027,173.51833540000007,174.0019200000006,,,,,,,,,,left,0,0.2832619999990129,None,174.0184474000016,173.20619810000062,,,,190332,001,2026-04-16_10h43.17.905,midterm_project,,2026.1.1,59.82560835159888,2026-04-16 10h43.19.067647 +0800,
4,1,feature,right,34,34,0,left,0,0.6700858999993216,None,,,,,0,34,34,12,174.0184474000016,,,,,,,,,,,,,,,,,174.002290800001,174.0184474000016,174.50187520000145,174.5197618000002,174.5328636000013,175.20507160000125,,,,,,175.20525009999983,175.21852709999985,175.70214510000005,,,,,,,,,,left,0,0.6700858999993216,None,175.7184311000001,174.5328636000013,,,,190332,001,2026-04-16_10h43.17.905,midterm_project,,2026.1.1,59.82560835159888,2026-04-16 10h43.19.067647 +0800,
24,1,feature,right,35,35,0,left,0,0.7328125999993063,None,,,,,0,35,35,2,175.7184311000001,,,,,,,,,,,,,,,,,175.70252400000027,175.7184311000001,176.20475520000036,176.26069559999996,176.2811236000016,177.02279330000056,,,,,,177.02291590000095,177.0338539000004,177.5183407000004,,,,,,,,,,left,0,0.7328125999993063,None,177.59596310000052,176.2811236000016,,,,190332,001,2026-04-16_10h43.17.905,midterm_project,,2026.1.1,59.82560835159888,2026-04-16 10h43.19.067647 +0800,
,,,,,,,,,,,,,,,,,,,,,,,,,,,,,,,,,,,,,,,,,,,,,,,,,,,,,,,,,,,,,,,,,177.51855700000124,177.59596310000052,180.5344851000009,190332,001,2026-04-16_10h43.17.905,midterm_project,,2026.1.1,59.82560835159888,2026-04-16 10h43.19.067647 +0800,
