set_size,target_present,condition_type,corr_resp,thisN,thisTrialN,thisRepN,key_resp.keys,key_resp.corr,key_resp.rt,key_resp.duration,practice_loop.thisRepN,practice_loop.thisTrialN,practice_loop.thisN,practice_loop.thisIndex,formal_loop.thisRepN,formal_loop.thisTrialN,formal_loop.thisN,formal_loop.thisIndex,thisRow.t,notes,piloting,start.started,open_text.started,start_key.started,start.stopped,start_key.keys,start_key.rt,start_key.duration,instr_practice.started,prac_text.started,prac_key.started,instr_practice.stopped,prac_key.keys,prac_key.rt,prac_key.duration,fixation.started,fix_text.started,fixation.stopped,trial.started,key_resp.started,trial.stopped,practice_loop.key_resp.keys,practice_loop.key_resp.corr,practice_loop.key_resp.rt,practice_loop.key_resp.duration,feedback.started,fb_text.started,feedback.stopped,ITI.started,ITI_text.started,ITI.stopped,fb_text.stopped,ITI_text.stopped,fix_text.stopped,instr_formal.started,formal_text.started,formal_key.started,instr_formal.stopped,formal_key.keys,formal_key.rt,formal_key.duration,formal_loop.key_resp.keys,formal_loop.key_resp.corr,formal_loop.key_resp.rt,formal_loop.key_resp.duration,thanks.started,thanks_text.started,thanks.stopped,participant,session,date,expName,expVersion,psychopyVersion,frameRate,expStart,
,,,,,,,,,,,,,,,,,,,,,False,0.00289649999467656,0.008996699994895607,0.008996699994895607,1.522412999998778,space,1.3984609000035562,None,,,,,,,,,,,,,,,,,,,,,,,,,,,,,,,,,,,,,,,,,2,001,2026-04-15_21h59.49.556,midterm_project,,2026.1.1,59.9599108194588,2026-04-15 21h59.50.089769 +0800,
,,,,,,,,,,,,,,,,,,,,,,,,,,,,,1.5224601000081748,1.52810589998262,1.52810589998262,4.147639200033154,space,2.6041694000014104,None,,,,,,,,,,,,,,,,,,,,,,,,,,,,,,,,,,2,001,2026-04-15_21h59.49.556,midterm_project,,2026.1.1,59.9599108194588,2026-04-15 21h59.50.089769 +0800,
12,0,conjunction,left,0,0,0,left,1,1.7053728000028059,None,0,0,0,5,,,,,4.218457499984652,,,,,,,,,,,,,,,,,4.214117600000463,4.218457499984652,4.6635014999774285,4.739547299977858,4.751830200024415,6.467858000018168,left,1,1.7053728000028059,None,6.468040900013875,6.497018699999899,7.9803813000326045,7.980493700015359,7.995973600016441,8.47935989999678,,,,,,,,,,,,,,,,,,2,001,2026-04-15_21h59.49.556,midterm_project,,2026.1.1,59.9599108194588,2026-04-15 21h59.50.089769 +0800,
4,1,feature,right,1,1,0,right,1,0.8561628000461496,None,0,1,1,0,,,,,8.495977799990214,,,,,,,,,,,,,,,,,8.479645400017034,8.495977799990214,8.979712100001052,8.992933499976061,9.001310600026045,9.864333499979693,right,1,0.8561628000461496,None,9.864445900020655,9.879938300000504,11.378930300008506,11.378990900004283,11.395290500018746,11.88014949997887,,,,,,,,,,,,,,,,,,2,001,2026-04-15_21h59.49.556,midterm_project,,2026.1.1,59.9599108194588,2026-04-15 21h59.50.089769 +0800,
24,1,feature,right,2,2,0,right,1,0.7479443000047468,None,0,2,2,1,,,,,11.89617800002452,,,,,,,,,,,,,,,,,11.881019500026014,11.89617800002452,12.379782899981365,12.439385999983642,12.458095200010575,13.215269799984526,right,1,0.7479443000047468,None,13.215348600002471,13.228494199982379,14.712826200004201,14.712906300032046,14.728480699995998,15.212021599989384,14.728480699995998,15.228658000007272,,,,,,,,,,,,,,,,2,001,2026-04-15_21h59.49.556,midterm_project,,2026.1.1,59.9599108194588,2026-04-15 21h59.50.089769 +0800,
24,1,conjunction,right,3,3,0,right,1,1.3159512999700382,None,0,3,3,4,,,,,15.228658000007272,,,,,,,,,,,,,,,,,15.21229230001336,15.228658000007272,15.712276900012512,15.782771500002127,15.802572100015823,17.132245399989188,right,1,1.3159512999700382,None,17.132340700016357,17.14493810001295,18.630296399991494,18.630386000033468,18.644570800010115,19.12939960003132,18.644570800010115,19.144760099996347,15.802572100015823,,,,,,,,,,,,,,,2,001,2026-04-15_21h59.49.556,midterm_project,,2026.1.1,59.9599108194588,2026-04-15 21h59.50.089769 +0800,
4,1,conjunction,right,4,4,0,right,1,0.7988427999662235,None,0,4,4,3,,,,,19.144760099996347,,,,,,,,,,,,,,,,,19.129849400022067,19.144760099996347,19.629448399995454,19.651494099991396,19.659491700003855,20.464602300024126,right,1,0.7988427999662235,None,20.46477479999885,20.48091669997666,21.977951899985783,21.978038800007198,21.99434239999391,22.478836000023875,,,19.659491700003855,,,,,,,,,,,,,,,2,001,2026-04-15_21h59.49.556,midterm_project,,2026.1.1,59.9599108194588,2026-04-15 21h59.50.089769 +0800,
12,0,feature,left,5,5,0,left,1,1.130798100028187,None,0,5,5,2,,,,,22.49441470002057,,,,,,,,,,,,,,,,,22.479715200024657,22.49441470002057,22.977911000023596,23.01368440000806,23.02606599999126,24.163312899996527,left,1,1.130798100028187,None,24.16343010001583,24.17710040003294,25.66134290001355,25.661392199981492,25.67691769998055,26.161224199982826,25.67691769998055,26.179225699976087,,,,,,,,,,,,,,,,2,001,2026-04-15_21h59.49.556,midterm_project,,2026.1.1,59.9599108194588,2026-04-15 21h59.50.089769 +0800,
,,,,,,,,,,,,,,,,,,,,,,,,,,,,,,,,,,,,,,,,,,,,,,,,,,,,,,,26.161511600017548,26.179225699976087,26.179225699976087,28.57784059998812,space,2.3891152000287548,None,,,,,,,,2,001,2026-04-15_21h59.49.556,midterm_project,,2026.1.1,59.9599108194588,2026-04-15 21h59.50.089769 +0800,
4,1,feature,right,0,0,0,right,1,0.7324653000105172,None,,,,,0,0,0,24,28.60472679999657,,,,,,,,,,,,,,,,,28.601542800024617,28.60472679999657,29.093486800033133,29.104735200002324,29.11200279998593,29.860918799997307,,,,,,,,29.861017799994443,29.876433800032828,30.359950300015043,,30.37636679998832,,,,,,,,,right,1,0.7324653000105172,None,,,,2,001,2026-04-15_21h59.49.556,midterm_project,,2026.1.1,59.9599108194588,2026-04-15 21h59.50.089769 +0800,
4,1,feature,right,1,1,0,right,1,0.5598197000217624,None,,,,,0,1,1,0,30.37636679998832,,,,,,,,,,,,,,,,,30.36021240003174,30.37636679998832,30.86054540000623,30.87693379999837,30.884756900020875,31.446263000019826,,,,,,,,31.446445400011726,31.459602500020992,31.944215700030327,,31.960067600011826,30.884756900020875,,,,,,,,right,1,0.5598197000217624,None,,,,2,001,2026-04-15_21h59.49.556,midterm_project,,2026.1.1,59.9599108194588,2026-04-15 21h59.50.089769 +0800,
24,1,conjunction,right,2,2,0,right,1,1.2204105000128038,None,,,,,0,2,2,20,31.960067600011826,,,,,,,,,,,,,,,,,31.944680600019637,31.960067600011826,32.44398789998377,32.59175399999367,32.61119169997983,33.84640400001081,,,,,,,,33.846511300012935,33.85964580002474,34.34298710001167,,34.359555100032594,32.61119169997983,,,,,,,,right,1,1.2204105000128038,None,,,,2,001,2026-04-15_21h59.49.556,midterm_project,,2026.1.1,59.9599108194588,2026-04-15 21h59.50.089769 +0800,
24,1,feature,right,3,3,0,right,1,0.5783689999952912,None,,,,,0,3,3,26,34.359555100032594,,,,,,,,,,,,,,,,,34.34331139997812,34.359555100032594,34.84299440000905,34.88389569998253,34.90329729998484,35.49603430001298,,,,,,,,35.49613440001849,35.5094492000062,35.994235799997114,,36.00984489999246,34.90329729998484,,,,,,,,right,1,0.5783689999952912,None,,,,2,001,2026-04-15_21h59.49.556,midterm_project,,2026.1.1,59.9599108194588,2026-04-15 21h59.50.089769 +0800,
12,0,feature,left,4,4,0,left,1,0.560369799961336,None,,,,,0,4,4,4,36.00984489999246,,,,,,,,,,,,,,,,,35.994991399988066,36.00984489999246,36.492888499982655,36.52093960001366,36.53324690001318,37.09479120001197,,,,,,,,37.09489260002738,37.10888130002422,37.59296350000659,,37.60932950000279,36.53324690001318,,,,,,,,left,1,0.560369799961336,None,,,,2,001,2026-04-15_21h59.49.556,midterm_project,,2026.1.1,59.9599108194588,2026-04-15 21h59.50.089769 +0800,
4,0,feature,left,5,5,0,left,1,0.6015071000438184,None,,,,,0,5,5,15,37.60932950000279,,,,,,,,,,,,,,,,,37.59337720001349,37.60932950000279,38.09432700002799,38.10969439998735,38.11698679998517,38.726660699991044,,,,,,,,38.72675730002811,38.74176559998887,39.22546540002804,,39.24198210000759,38.11698679998517,,,,,,,,left,1,0.6015071000438184,None,,,,2,001,2026-04-15_21h59.49.556,midterm_project,,2026.1.1,59.9599108194588,2026-04-15 21h59.50.089769 +0800,
12,1,conjunction,right,6,6,0,right,1,0.7740564999985509,None,,,,,0,6,6,19,39.24198210000759,,,,,,,,,,,,,,,,,39.225657399976626,39.24198210000759,39.72697730001528,39.783460500009824,39.79549920000136,40.57819929998368,,,,,,,,40.57829470001161,40.59191989997635,41.0767019999912,,41.092803100007586,39.79549920000136,,,,,,,,right,1,0.7740564999985509,None,,,,2,001,2026-04-15_21h59.49.556,midterm_project,,2026.1.1,59.9599108194588,2026-04-15 21h59.50.089769 +0800,
12,1,feature,right,7,7,0,right,1,0.8007479999796487,None,,,,,0,7,7,13,41.092803100007586,,,,,,,,,,,,,,,,,41.07740529999137,41.092803100007586,41.57568419998279,41.605044900032226,41.61861730000237,42.427627100027166,,,,,,,,42.42773729999317,42.44168950000312,42.92637200001627,,42.94179060001625,41.61861730000237,,,,,,,,right,1,0.8007479999796487,None,,,,2,001,2026-04-15_21h59.49.556,midterm_project,,2026.1.1,59.9599108194588,2026-04-15 21h59.50.089769 +0800,
12,0,conjunction,left,8,8,0,left,1,0.7852009999915026,None,,,,,0,8,8,10,42.94179060001625,,,,,,,,,,,,,,,,,42.92697520001093,42.94179060001625,43.425162600004114,43.47227219998604,43.48408249998465,44.27635719999671,,,,,,,,44.27643209998496,44.29122120002285,44.77540159999626,,44.791547400003765,43.48408249998465,,,,,,,,left,1,0.7852009999915026,None,,,,2,001,2026-04-15_21h59.49.556,midterm_project,,2026.1.1,59.9599108194588,2026-04-15 21h59.50.089769 +0800,
4,1,conjunction,right,9,9,0,right,1,0.7542336999904364,None,,,,,0,9,9,30,44.791547400003765,,,,,,,,,,,,,,,,,44.775783099990804,44.791547400003765,45.275429799978156,45.29547509999247,45.30225700000301,46.059361700026784,,,,,,,,46.05950199998915,46.07421930000419,46.558030600019265,,46.57473210000899,45.30225700000301,,,,,,,,right,1,0.7542336999904364,None,,,,2,001,2026-04-15_21h59.49.556,midterm_project,,2026.1.1,59.9599108194588,2026-04-15 21h59.50.089769 +0800,
12,0,feature,left,10,10,0,left,1,0.7492450999561697,None,,,,,0,10,10,28,46.57473210000899,,,,,,,,,,,,,,,,,46.558270999987144,46.57473210000899,47.058066400000826,47.092657100001816,47.10779330000514,47.86062360001961,,,,,,,,47.860740899981465,47.87412320001749,48.35787760000676,,48.37431879999349,47.10779330000514,,,,,,,,left,1,0.7492450999561697,None,,,,2,001,2026-04-15_21h59.49.556,midterm_project,,2026.1.1,59.9599108194588,2026-04-15 21h59.50.089769 +0800,
24,0,feature,left,11,11,0,left,1,0.8250805000425316,None,,,,,0,11,11,5,48.37431879999349,,,,,,,,,,,,,,,,,48.358159099996556,48.37431879999349,48.85774730000412,48.898328999988735,48.919039400003385,49.76150570000755,,,,,,,,49.761611599999014,49.77421340002911,50.257931699976325,,50.27406670001801,48.919039400003385,,,,,,,,left,1,0.8250805000425316,None,,,,2,001,2026-04-15_21h59.49.556,midterm_project,,2026.1.1,59.9599108194588,2026-04-15 21h59.50.089769 +0800,
12,0,conjunction,left,12,12,0,left,1,1.10852959996555,None,,,,,0,12,12,22,50.27406670001801,,,,,,,,,,,,,,,,,50.25833340000827,50.27406670001801,50.75715590000618,50.78764679998858,50.79904730000999,51.91222469997592,,,,,,,,51.91238210001029,51.92346620000899,52.40722390002338,,52.42375549999997,50.79904730000999,,,,,,,,left,1,1.10852959996555,None,,,,2,001,2026-04-15_21h59.49.556,midterm_project,,2026.1.1,59.9599108194588,2026-04-15 21h59.50.089769 +0800,
24,1,conjunction,right,13,13,0,right,1,0.8744905000203289,None,,,,,0,13,13,8,52.42375549999997,,,,,,,,,,,,,,,,,52.40748990001157,52.42375549999997,52.907288199989125,52.97410779999336,52.99444510001922,53.87645540002268,,,,,,,,53.87657060002675,53.890074700000696,54.373486800002865,,54.38990970002487,52.99444510001922,,,,,,,,right,1,0.8744905000203289,None,,,,2,001,2026-04-15_21h59.49.556,midterm_project,,2026.1.1,59.9599108194588,2026-04-15 21h59.50.089769 +0800,
12,1,feature,right,14,14,0,right,1,0.7675461000180803,None,,,,,0,14,14,25,54.38990970002487,,,,,,,,,,,,,,,,,54.373727600032,54.38990970002487,54.87365550000686,54.9027797000017,54.91408329998376,55.69198609999148,,,,,,,,55.69208439998329,55.706441599992104,56.190894400002435,,56.206768100033514,54.91408329998376,,,,,,,,right,1,0.7675461000180803,None,,,,2,001,2026-04-15_21h59.49.556,midterm_project,,2026.1.1,59.9599108194588,2026-04-15 21h59.50.089769 +0800,
24,1,feature,right,15,15,0,left,0,1.1800111000193283,None,,,,,0,15,15,14,56.206768100033514,,,,,,,,,,,,,,,,,56.19143270002678,56.206768100033514,56.690051699988544,56.73335270001553,56.752364000014495,57.94291530002374,,,,,,,,57.94300199998543,57.95614820002811,58.44101509999018,,58.4568371999776,56.752364000014495,,,,,,,,left,0,1.1800111000193283,None,,,,2,001,2026-04-15_21h59.49.556,midterm_project,,2026.1.1,59.9599108194588,2026-04-15 21h59.50.089769 +0800,
4,1,conjunction,right,16,16,0,right,1,0.4843754000030458,None,,,,,0,16,16,6,58.4568371999776,,,,,,,,,,,,,,,,,58.44173890003003,58.4568371999776,58.94098850002047,58.977820899977814,58.98732559999917,59.47762459999649,,,,,,,,59.47798510000575,59.48926330002723,59.97397629998159,,59.989822199975606,58.98732559999917,,,,,,,,right,1,0.4843754000030458,None,,,,2,001,2026-04-15_21h59.49.556,midterm_project,,2026.1.1,59.9599108194588,2026-04-15 21h59.50.089769 +0800,
4,0,conjunction,left,17,17,0,left,1,1.1083455000189133,None,,,,,0,17,17,9,59.989822199975606,,,,,,,,,,,,,,,,,59.97454929997912,59.989822199975606,60.475802699977066,60.5056479999912,60.51342299999669,61.627510700025596,,,,,,,,61.627780199982226,61.63948130002245,62.12363520002691,,62.139714799996,60.51342299999669,,,,,,,,left,1,1.1083455000189133,None,,,,2,001,2026-04-15_21h59.49.556,midterm_project,,2026.1.1,59.9599108194588,2026-04-15 21h59.50.089769 +0800,
24,0,conjunction,left,18,18,0,left,1,1.5991643000161275,None,,,,,0,18,18,23,62.139714799996,,,,,,,,,,,,,,,,,62.12417580001056,62.139714799996,62.623321900027804,62.70034979999764,62.720344400033355,64.32573879999109,,,,,,,,64.3258257000125,64.33850349998102,64.82391380000627,,64.83884829998715,62.720344400033355,,,,,,,,left,1,1.5991643000161275,None,,,,2,001,2026-04-15_21h59.49.556,midterm_project,,2026.1.1,59.9599108194588,2026-04-15 21h59.50.089769 +0800,
24,0,conjunction,left,19,19,0,left,1,0.6797266000066884,None,,,,,0,19,19,11,64.83884829998715,,,,,,,,,,,,,,,,,64.82511490001343,64.83884829998715,65.32255809998605,65.4070469000144,65.42684490000829,66.11021760001313,,,,,,,,66.11030920001213,66.12176810001256,66.6057874999824,,66.62170509999851,65.42684490000829,,,,,,,,left,1,0.6797266000066884,None,,,,2,001,2026-04-15_21h59.49.556,midterm_project,,2026.1.1,59.9599108194588,2026-04-15 21h59.50.089769 +0800,
4,0,feature,left,20,20,0,right,0,0.7335184999974445,None,,,,,0,20,20,27,66.62170509999851,,,,,,,,,,,,,,,,,66.60626289999345,66.62170509999851,67.10571580001852,67.11965840001358,67.1267644999898,67.87385600002017,,,,,,,,67.8739818999893,67.88823039998533,68.37208030000329,,68.38804510002956,67.1267644999898,,,,,,,,right,0,0.7335184999974445,None,,,,2,001,2026-04-15_21h59.49.556,midterm_project,,2026.1.1,59.9599108194588,2026-04-15 21h59.50.089769 +0800,
12,1,conjunction,right,21,21,0,right,1,1.4741961000254378,None,,,,,0,21,21,7,68.38804510002956,,,,,,,,,,,,,,,,,68.37239630002296,68.38804510002956,68.8718411999871,68.90880099998321,68.92016470001545,70.40752930002054,,,,,,,,70.40764599997783,70.42129249998834,70.9056733000325,,70.92139159998624,68.92016470001545,,,,,,,,right,1,1.4741961000254378,None,,,,2,001,2026-04-15_21h59.49.556,midterm_project,,2026.1.1,59.9599108194588,2026-04-15 21h59.50.089769 +0800,
4,0,conjunction,left,22,22,0,left,1,1.0184443999896757,None,,,,,0,22,22,21,70.92139159998624,,,,,,,,,,,,,,,,,70.90613489999669,70.92139159998624,71.4049375000177,71.4192316000117,71.4256612000172,72.45517770003062,,,,,,,,72.45525960001396,72.47077910002554,72.95491600001696,,72.97115120000672,71.4256612000172,,,,,,,,left,1,1.0184443999896757,None,,,,2,001,2026-04-15_21h59.49.556,midterm_project,,2026.1.1,59.9599108194588,2026-04-15 21h59.50.089769 +0800,
4,0,feature,left,23,23,0,left,1,0.6562988000223413,None,,,,,0,23,23,3,72.97115120000672,,,,,,,,,,,,,,,,,72.95533630001592,72.97115120000672,73.45575530000497,73.47858039999846,73.48878880002303,74.15844010002911,,,,,,,,74.15868250001222,74.17061650002142,74.65657639998244,,74.67069810000248,73.48878880002303,,,,,,,,left,1,0.6562988000223413,None,,,,2,001,2026-04-15_21h59.49.556,midterm_project,,2026.1.1,59.9599108194588,2026-04-15 21h59.50.089769 +0800,
24,0,conjunction,left,24,24,0,left,1,1.1482997999992222,None,,,,,0,24,24,35,74.67069810000248,,,,,,,,,,,,,,,,,74.65732430003118,74.67069810000248,75.15449119999539,75.23829760000808,75.25794590002624,76.40777049999451,,,,,,,,76.4078673000331,76.42030549998162,76.9044220999931,,76.92073299997719,75.25794590002624,,,,,,,,left,1,1.1482997999992222,None,,,,2,001,2026-04-15_21h59.49.556,midterm_project,,2026.1.1,59.9599108194588,2026-04-15 21h59.50.089769 +0800,
12,1,feature,right,25,25,0,right,1,0.653985199984163,None,,,,,0,25,25,1,76.92073299997719,,,,,,,,,,,,,,,,,76.90521569998236,76.92073299997719,77.40399760002038,77.42913519998547,77.44018939998932,78.1055900999927,,,,,,,,78.10567840002477,78.1210565000074,78.60418690001825,,78.62052270001732,77.44018939998932,,,,,,,,right,1,0.653985199984163,None,,,,2,001,2026-04-15_21h59.49.556,midterm_project,,2026.1.1,59.9599108194588,2026-04-15 21h59.50.089769 +0800,
24,1,feature,right,26,26,0,right,1,0.6042545000091195,None,,,,,0,26,26,2,78.62052270001732,,,,,,,,,,,,,,,,,78.60460289998446,78.62052270001732,79.10361589997774,79.14512030000333,79.16510789998574,79.7740952000022,,,,,,,,79.77419949998148,79.78681379999034,80.27095169998938,,80.28734969999641,79.16510789998574,,,,,,,,right,1,0.6042545000091195,None,,,,2,001,2026-04-15_21h59.49.556,midterm_project,,2026.1.1,59.9599108194588,2026-04-15 21h59.50.089769 +0800,
24,1,conjunction,right,27,27,0,right,1,0.7557918000384234,None,,,,,0,27,27,32,80.28734969999641,,,,,,,,,,,,,,,,,80.2714853999787,80.28734969999641,80.77057260001311,80.84324449999258,80.86346110003069,81.62435559998266,,,,,,,,81.6244616000331,81.63627279998036,82.1203493999783,,82.13660109997727,80.86346110003069,,,,,,,,right,1,0.7557918000384234,None,,,,2,001,2026-04-15_21h59.49.556,midterm_project,,2026.1.1,59.9599108194588,2026-04-15 21h59.50.089769 +0800,
24,0,feature,left,28,28,0,left,1,0.7033155999961309,None,,,,,0,28,28,17,82.13660109997727,,,,,,,,,,,,,,,,,82.1207354000071,82.13660109997727,82.62131850002334,82.68455559998984,82.70339530002093,83.42285899998387,,,,,,,,83.42295690003084,83.43628209998133,83.91957430000184,,83.93618950003292,82.70339530002093,,,,,,,,left,1,0.7033155999961309,None,,,,2,001,2026-04-15_21h59.49.556,midterm_project,,2026.1.1,59.9599108194588,2026-04-15 21h59.50.089769 +0800,
12,0,feature,left,29,29,0,left,1,0.4576987000182271,None,,,,,0,29,29,16,83.93618950003292,,,,,,,,,,,,,,,,,83.91979359998368,83.93618950003292,84.42111799999839,84.46038080001017,84.47466280002845,84.93859149998752,,,,,,,,84.93869640002958,84.95286770001985,85.43764680001186,,85.4534131999826,84.47466280002845,,,,,,,,left,1,0.4576987000182271,None,,,,2,001,2026-04-15_21h59.49.556,midterm_project,,2026.1.1,59.9599108194588,2026-04-15 21h59.50.089769 +0800,
4,1,conjunction,right,30,30,0,right,1,1.2009746000403538,None,,,,,0,30,30,18,85.4534131999826,,,,,,,,,,,,,,,,,85.43847520003328,85.4534131999826,85.93774149997625,85.9606242000009,85.97023630002514,87.18702670000494,,,,,,,,87.18711870000698,87.20248199999332,87.68645670003025,,87.70278170000529,85.97023630002514,,,,,,,,right,1,1.2009746000403538,None,,,,2,001,2026-04-15_21h59.49.556,midterm_project,,2026.1.1,59.9599108194588,2026-04-15 21h59.50.089769 +0800,
4,1,feature,right,31,31,0,right,1,0.6540854999911971,None,,,,,0,31,31,12,87.70278170000529,,,,,,,,,,,,,,,,,87.68686660000822,87.70278170000529,88.18755249999231,88.20668240002124,88.21516580000753,88.87094410002464,,,,,,,,88.87112860003253,88.88537169998745,89.36921550001716,,89.38555080001242,88.21516580000753,,,,,,,,right,1,0.6540854999911971,None,,,,2,001,2026-04-15_21h59.49.556,midterm_project,,2026.1.1,59.9599108194588,2026-04-15 21h59.50.089769 +0800,
12,1,conjunction,right,32,32,0,right,1,0.8041204999899492,None,,,,,0,32,32,31,89.38555080001242,,,,,,,,,,,,,,,,,89.36944450001465,89.38555080001242,89.86886059999233,89.90392060001614,89.91559759998927,90.72220900002867,,,,,,,,90.72233520000009,90.7353503999766,91.22056869999506,,91.23592379997717,89.91559759998927,,,,,,,,right,1,0.8041204999899492,None,,,,2,001,2026-04-15_21h59.49.556,midterm_project,,2026.1.1,59.9599108194588,2026-04-15 21h59.50.089769 +0800,
24,0,feature,left,33,33,0,left,1,0.5206547999987379,None,,,,,0,33,33,29,91.23592379997717,,,,,,,,,,,,,,,,,91.22131130000344,91.23592379997717,91.71980890003033,91.76760100002866,91.7864221999771,92.32222869998077,,,,,,,,92.32232289999956,92.33494510001037,92.81951880000997,,92.83510949998163,91.7864221999771,,,,,,,,left,1,0.5206547999987379,None,,,,2,001,2026-04-15_21h59.49.556,midterm_project,,2026.1.1,59.9599108194588,2026-04-15 21h59.50.089769 +0800,
12,0,conjunction,left,34,34,0,left,1,1.3016197999822907,None,,,,,0,34,34,34,92.83510949998163,,,,,,,,,,,,,,,,,92.8199319000123,92.83510949998163,93.31867000000784,93.35683649999555,93.36832479998702,94.6722798999981,,,,,,,,94.67242630000692,94.6848063999787,95.16965529997833,,95.1854227000149,93.36832479998702,,,,,,,,left,1,1.3016197999822907,None,,,,2,001,2026-04-15_21h59.49.556,midterm_project,,2026.1.1,59.9599108194588,2026-04-15 21h59.50.089769 +0800,
4,0,conjunction,left,35,35,0,left,1,1.3820730000152253,None,,,,,0,35,35,33,95.1854227000149,,,,,,,,,,,,,,,,,95.17038419999881,95.1854227000149,95.66876109997975,95.69525140000042,95.70298360002926,97.08873529999983,,,,,,,,97.08892549999291,97.10096339997835,97.58573579997756,,97.62183050002204,95.70298360002926,,,,,,,,left,1,1.3820730000152253,None,,,,2,001,2026-04-15_21h59.49.556,midterm_project,,2026.1.1,59.9599108194588,2026-04-15 21h59.50.089769 +0800,
,,,,,,,,,,,,,,,,,,,,,,,,,,,,,,,,,,,,,,,,,,,,,,,,,,,,,,,,,,,,,,,,,,97.58607820002362,97.62183050002204,100.60108789999504,2,001,2026-04-15_21h59.49.556,midterm_project,,2026.1.1,59.9599108194588,2026-04-15 21h59.50.089769 +0800,
