set_size,target_present,condition_type,corr_resp,thisN,thisTrialN,thisRepN,key_resp.keys,key_resp.corr,key_resp.rt,key_resp.duration,practice_loop.thisRepN,practice_loop.thisTrialN,practice_loop.thisN,practice_loop.thisIndex,formal_loop.thisRepN,formal_loop.thisTrialN,formal_loop.thisN,formal_loop.thisIndex,thisRow.t,notes,piloting,start.started,open_text.started,start_key.started,start.stopped,start_key.keys,start_key.rt,start_key.duration,instr_practice.started,prac_text.started,prac_key.started,instr_practice.stopped,prac_key.keys,prac_key.rt,prac_key.duration,fixation.started,fix_text.started,fix_text.stopped,fixation.stopped,trial.started,key_resp.started,trial.stopped,practice_loop.key_resp.keys,practice_loop.key_resp.corr,practice_loop.key_resp.rt,practice_loop.key_resp.duration,feedback.started,fb_text.started,feedback.stopped,ITI.started,ITI_text.started,ITI.stopped,fb_text.stopped,ITI_text.stopped,instr_formal.started,formal_text.started,formal_key.started,instr_formal.stopped,formal_key.keys,formal_key.rt,formal_key.duration,formal_loop.key_resp.keys,formal_loop.key_resp.corr,formal_loop.key_resp.rt,formal_loop.key_resp.duration,thanks.started,thanks_text.started,thanks.stopped,participant,session,date,expName,expVersion,psychopyVersion,frameRate,expStart,
,,,,,,,,,,,,,,,,,,,,,False,0.00396920001367107,0.010309899982530624,0.010309899982530624,1.2544460999779403,space,1.2176513000158593,None,,,,,,,,,,,,,,,,,,,,,,,,,,,,,,,,,,,,,,,,,4,001,2026-04-15_22h21.11.416,midterm_project,,2026.1.1,59.969367630186596,2026-04-15 22h21.11.665738 +0800,
,,,,,,,,,,,,,,,,,,,,,,,,,,,,,1.2545230999821797,1.2639577999943867,1.2639577999943867,3.8531024999683723,space,2.574014400015585,None,,,,,,,,,,,,,,,,,,,,,,,,,,,,,,,,,,4,001,2026-04-15_22h21.11.416,midterm_project,,2026.1.1,59.969367630186596,2026-04-15 22h21.11.665738 +0800,
24,1,feature,right,0,0,0,right,1,1.2203080000472255,None,0,0,0,1,,,,,3.8692588999983855,,,,,,,,,,,,,,,,,3.864516099973116,3.8692588999983855,4.418863099999726,4.353035999985877,4.399810899980366,4.418863099999726,5.640817400009837,right,1,1.2203080000472255,None,5.640987499966286,5.6576454999740236,7.153466199990362,7.153732199978549,7.168887200008612,7.653029999986757,,,,,,,,,,,,,,,,,4,001,2026-04-15_22h21.11.416,midterm_project,,2026.1.1,59.969367630186596,2026-04-15 22h21.11.665738 +0800,
4,1,feature,right,1,1,0,right,1,0.849226699967403,None,0,1,1,0,,,,,7.669423999963328,,,,,,,,,,,,,,,,,7.653984099975787,7.669423999963328,,8.151971399958711,8.161506599979475,8.168209999974351,9.022179599967785,right,1,0.849226699967403,None,9.022335999994539,9.044546299963258,10.53500009997515,10.535054099978879,10.551528799987864,11.03487919998588,,,,,,,,,,,,,,,,,4,001,2026-04-15_22h21.11.416,midterm_project,,2026.1.1,59.969367630186596,2026-04-15 22h21.11.665738 +0800,
12,0,conjunction,left,2,2,0,left,1,0.8641422999789938,None,0,2,2,5,,,,,11.051505799987353,,,,,,,,,,,,,,,,,11.035206099972129,11.051505799987353,,11.535358399967663,11.603275900008157,11.61456899996847,12.487287199997809,left,1,0.8641422999789938,None,12.487404899962712,12.50309939996805,14.000981599965598,14.001034099957906,14.017811300000176,14.502009299991187,,,,,,,,,,,,,,,,,4,001,2026-04-15_22h21.11.416,midterm_project,,2026.1.1,59.969367630186596,2026-04-15 22h21.11.665738 +0800,
24,1,conjunction,right,3,3,0,right,1,0.6633303000126034,None,0,3,3,4,,,,,14.517489499994554,,,,,,,,,,,,,,,,,14.502659999998286,14.517489499994554,,15.002393700007815,15.081905299972277,15.101759999990463,15.773368299996946,right,1,0.6633303000126034,None,15.773484000004828,15.786564800015185,17.284362700011116,17.284440999967046,17.30101990001276,17.784276099991985,,,,,,,,,,,,,,,,,4,001,2026-04-15_22h21.11.416,midterm_project,,2026.1.1,59.969367630186596,2026-04-15 22h21.11.665738 +0800,
4,1,conjunction,right,4,4,0,right,1,0.8284440999850631,None,0,4,4,3,,,,,17.80077440000605,,,,,,,,,,,,,,,,,17.784841199987568,17.80077440000605,,18.284261199994944,18.30607459996827,18.314624599996023,19.151857699966058,right,1,0.8284440999850631,None,19.151960799994413,19.1671151999617,20.651950899977237,20.652010299963877,20.66682529996615,21.150703499966767,20.66682529996615,21.167264399991836,,,,,,,,,,,,,,,4,001,2026-04-15_22h21.11.416,midterm_project,,2026.1.1,59.969367630186596,2026-04-15 22h21.11.665738 +0800,
12,0,feature,left,5,5,0,left,1,0.9352797999745235,None,0,5,5,2,,,,,21.167264399991836,,,,,,,,,,,,,,,,,21.151179199980106,21.167264399991836,21.704320399963763,21.651906099985354,21.691184399998747,21.704320399963763,22.651749000011478,left,1,0.9352797999745235,None,22.651882699981797,22.666388000012375,24.150763000012375,24.15082340000663,24.166447299998254,24.65120319998823,24.166447299998254,24.667952899995726,,,,,,,,,,,,,,,4,001,2026-04-15_22h21.11.416,midterm_project,,2026.1.1,59.969367630186596,2026-04-15 22h21.11.665738 +0800,
,,,,,,,,,,,,,,,,,,,,,,,,,,,,,,,,,,,,,,,,,,,,,,,,,,,,,,,24.65157599997474,24.667952899995726,24.667952899995726,26.16744980000658,space,1.4967858999734744,None,,,,,,,,4,001,2026-04-15_22h21.11.416,midterm_project,,2026.1.1,59.969367630186596,2026-04-15 22h21.11.665738 +0800,
4,0,conjunction,left,0,0,0,left,1,1.3328665999579243,None,,,,,0,0,0,33,26.18885739997495,,,,,,,,,,,,,,,,,26.185227899986785,26.18885739997495,,26.683748799958266,26.712433299981058,26.7198782999767,28.067914599960204,,,,,,,,28.068074300012086,28.082373299985193,28.56656289997045,,28.582548999984283,,,,,,,,left,1,1.3328665999579243,None,,,,4,001,2026-04-15_22h21.11.416,midterm_project,,2026.1.1,59.969367630186596,2026-04-15 22h21.11.665738 +0800,
4,0,feature,left,1,1,0,left,1,0.5679440999520011,None,,,,,0,1,1,15,28.582548999984283,,,,,,,,,,,,,,,,,28.566971399995964,28.582548999984283,29.09666029998334,29.06697990000248,29.087485199968796,29.09666029998334,29.66691189998528,,,,,,,,29.66704309999477,29.681952899962198,30.167183200013824,,30.182307499984745,,,,,,,,left,1,0.5679440999520011,None,,,,4,001,2026-04-15_22h21.11.416,midterm_project,,2026.1.1,59.969367630186596,2026-04-15 22h21.11.665738 +0800,
24,0,conjunction,left,2,2,0,left,1,1.661097800009884,None,,,,,0,2,2,11,30.182307499984745,,,,,,,,,,,,,,,,,30.16764040000271,30.182307499984745,30.841570499993395,30.66677939996589,30.814428499958012,30.841570499993395,32.50429549999535,,,,,,,,32.50446319999173,32.51539839996258,32.99993619997986,,33.015120600000955,,,,,,,,left,1,1.661097800009884,None,,,,4,001,2026-04-15_22h21.11.416,midterm_project,,2026.1.1,59.969367630186596,2026-04-15 22h21.11.665738 +0800,
4,0,conjunction,left,3,3,0,left,1,0.6503756999736652,None,,,,,0,3,3,9,33.015120600000955,,,,,,,,,,,,,,,,,33.00066899997182,33.015120600000955,33.52774569997564,33.498914900003,33.520992400008254,33.52774569997564,34.18401259998791,,,,,,,,34.18418360000942,34.19842609995976,34.68201950000366,,34.698860400007106,,,,,,,,left,1,0.6503756999736652,None,,,,4,001,2026-04-15_22h21.11.416,midterm_project,,2026.1.1,59.969367630186596,2026-04-15 22h21.11.665738 +0800,
4,1,feature,right,4,4,0,right,1,0.933582000026945,None,,,,,0,4,4,0,34.698860400007106,,,,,,,,,,,,,,,,,34.68240099999821,34.698860400007106,35.20650139998179,35.181981800007634,35.19779830001062,35.20650139998179,36.14918100001523,,,,,,,,36.14926330000162,36.164697300002445,36.649639899958856,,36.665664799977094,,,,,,,,right,1,0.933582000026945,None,,,,4,001,2026-04-15_22h21.11.416,midterm_project,,2026.1.1,59.969367630186596,2026-04-15 22h21.11.665738 +0800,
12,0,feature,left,5,5,0,left,1,0.7297124000033364,None,,,,,0,5,5,28,36.665664799977094,,,,,,,,,,,,,,,,,36.65055369999027,36.665664799977094,37.184875099977944,37.1485696999589,37.17376490001334,37.184875099977944,37.91838849999476,,,,,,,,37.918548799993005,37.931064300006256,38.41586820001248,,38.43156459997408,,,,,,,,left,1,0.7297124000033364,None,,,,4,001,2026-04-15_22h21.11.416,midterm_project,,2026.1.1,59.969367630186596,2026-04-15 22h21.11.665738 +0800,
24,0,feature,left,6,6,0,left,1,0.6754179000272416,None,,,,,0,6,6,17,38.43156459997408,,,,,,,,,,,,,,,,,38.41653200000292,38.43156459997408,38.97715479996987,38.91470520000439,38.95749959995737,38.97715479996987,39.65334660001099,,,,,,,,39.653474499995355,39.66462269995827,40.14864959998522,,40.16505740000866,,,,,,,,left,1,0.6754179000272416,None,,,,4,001,2026-04-15_22h21.11.416,midterm_project,,2026.1.1,59.969367630186596,2026-04-15 22h21.11.665738 +0800,
24,0,conjunction,left,7,7,0,left,1,1.84407769999234,None,,,,,0,7,7,23,40.16505740000866,,,,,,,,,,,,,,,,,40.14913549995981,40.16505740000866,40.74590869998792,40.64859499997692,40.726315499981865,40.74590869998792,42.60404959996231,,,,,,,,42.60414959996706,42.61376350000501,43.09748249995755,,43.11402229999658,,,,,,,,left,1,1.84407769999234,None,,,,4,001,2026-04-15_22h21.11.416,midterm_project,,2026.1.1,59.969367630186596,2026-04-15 22h21.11.665738 +0800,
12,0,conjunction,left,8,8,0,left,1,1.114085300010629,None,,,,,0,8,8,10,43.11402229999658,,,,,,,,,,,,,,,,,43.09772520000115,43.11402229999658,43.66258679999737,43.5984671000042,43.65080389997456,43.66258679999737,44.78238739998778,,,,,,,,44.78248110000277,44.79686269996455,45.280761200003326,,45.29764529998647,,,,,,,,left,1,1.114085300010629,None,,,,4,001,2026-04-15_22h21.11.416,midterm_project,,2026.1.1,59.969367630186596,2026-04-15 22h21.11.665738 +0800,
12,0,conjunction,left,9,9,0,left,1,0.8611360999639146,None,,,,,0,9,9,22,45.29764529998647,,,,,,,,,,,,,,,,,45.2811359000043,45.29764529998647,45.82862109999405,45.78062450001016,45.81708269997034,45.82862109999405,46.69906650000485,,,,,,,,46.699167000013404,46.713484700012486,47.19693629996618,,47.21320060000289,,,,,,,,left,1,0.8611360999639146,None,,,,4,001,2026-04-15_22h21.11.416,midterm_project,,2026.1.1,59.969367630186596,2026-04-15 22h21.11.665738 +0800,
24,0,feature,left,10,10,0,left,1,0.87562170001911,None,,,,,0,10,10,29,47.21320060000289,,,,,,,,,,,,,,,,,47.19725849997485,47.21320060000289,47.76460110000335,47.69711259996984,47.74538229999598,47.76460110000335,48.650795999972615,,,,,,,,48.650901299959514,48.66310269996757,49.14814159995876,,49.16374389996054,,,,,,,,left,1,0.87562170001911,None,,,,4,001,2026-04-15_22h21.11.416,midterm_project,,2026.1.1,59.969367630186596,2026-04-15 22h21.11.665738 +0800,
24,0,conjunction,left,11,11,0,left,1,0.6671124999993481,None,,,,,0,11,11,35,49.16374389996054,,,,,,,,,,,,,,,,,49.148820300004445,49.16374389996054,49.735667300003115,49.64673519995995,49.715218500001356,49.735667300003115,50.4159793999861,,,,,,,,50.41605459997663,50.42974429996684,50.91450279997662,,50.929755299992394,,,,,,,,left,1,0.6671124999993481,None,,,,4,001,2026-04-15_22h21.11.416,midterm_project,,2026.1.1,59.969367630186596,2026-04-15 22h21.11.665738 +0800,
12,1,feature,right,12,12,0,right,1,0.6483522000489756,None,,,,,0,12,12,13,50.929755299992394,,,,,,,,,,,,,,,,,50.91523129999405,50.929755299992394,51.45428399997763,51.41352509998251,51.44297169998754,51.45428399997763,52.11558220000006,,,,,,,,52.11569479998434,52.12920839997241,52.613346299971454,,52.62939560000086,,,,,,,,right,1,0.6483522000489756,None,,,,4,001,2026-04-15_22h21.11.416,midterm_project,,2026.1.1,59.969367630186596,2026-04-15 22h21.11.665738 +0800,
12,0,conjunction,left,13,13,0,left,1,0.642852800025139,None,,,,,0,13,13,34,52.62939560000086,,,,,,,,,,,,,,,,,52.61371909995796,52.62939560000086,53.17221009999048,53.11338329996215,53.16037870000582,53.17221009999048,53.81708010000875,,,,,,,,53.817234199959785,53.82909249997465,54.31341699999757,,54.329357100010384,,,,,,,,left,1,0.642852800025139,None,,,,4,001,2026-04-15_22h21.11.416,midterm_project,,2026.1.1,59.969367630186596,2026-04-15 22h21.11.665738 +0800,
24,1,conjunction,right,14,14,0,right,1,0.5804933999897912,None,,,,,0,14,14,20,54.329357100010384,,,,,,,,,,,,,,,,,54.3138697000104,54.329357100010384,54.897463399975095,54.812769799958915,54.87812509998912,54.897463399975095,55.48284740000963,,,,,,,,55.48292569996556,55.49571869999636,55.97913160000462,,55.995308799960185,,,,,,,,right,1,0.5804933999897912,None,,,,4,001,2026-04-15_22h21.11.416,midterm_project,,2026.1.1,59.969367630186596,2026-04-15 22h21.11.665738 +0800,
12,1,feature,right,15,15,0,right,1,0.4807122999918647,None,,,,,0,15,15,25,55.995308799960185,,,,,,,,,,,,,,,,,55.9793983999989,55.995308799960185,56.53443200001493,56.48047559999395,56.52097509999294,56.53443200001493,57.0323069000151,,,,,,,,57.03245699999388,57.04541249998147,57.52968179999152,,57.54590919998009,,,,,,,,right,1,0.4807122999918647,None,,,,4,001,2026-04-15_22h21.11.416,midterm_project,,2026.1.1,59.969367630186596,2026-04-15 22h21.11.665738 +0800,
12,1,conjunction,right,16,16,0,right,1,0.8890173999825493,None,,,,,0,16,16,31,57.54590919998009,,,,,,,,,,,,,,,,,57.53023490001215,57.54590919998009,58.075811599963345,58.02871199999936,58.06370989995776,58.075811599963345,58.980756099976134,,,,,,,,58.98085529997479,58.99520860001212,59.479189999983646,,59.49519009998767,,,,,,,,right,1,0.8890173999825493,None,,,,4,001,2026-04-15_22h21.11.416,midterm_project,,2026.1.1,59.969367630186596,2026-04-15 22h21.11.665738 +0800,
24,1,feature,right,17,17,0,right,1,0.6287701000110246,None,,,,,0,17,17,14,59.49519009998767,,,,,,,,,,,,,,,,,59.4796076999628,59.49519009998767,60.04893699998502,59.97909679997247,60.03028159996029,60.04893699998502,60.683538599987514,,,,,,,,60.68366249999963,60.69518929999322,61.17853350000223,,61.194630299985874,,,,,,,,right,1,0.6287701000110246,None,,,,4,001,2026-04-15_22h21.11.416,midterm_project,,2026.1.1,59.969367630186596,2026-04-15 22h21.11.665738 +0800,
24,1,feature,right,18,18,0,right,1,0.6165830999962054,None,,,,,0,18,18,26,61.194630299985874,,,,,,,,,,,,,,,,,61.17879869998433,61.194630299985874,61.748563200002536,61.67998600000283,61.7298138999613,61.748563200002536,62.367063499987125,,,,,,,,62.36720009997953,62.37830059998669,62.862621299980674,,62.878048999991734,,,,,,,,right,1,0.6165830999962054,None,,,,4,001,2026-04-15_22h21.11.416,midterm_project,,2026.1.1,59.969367630186596,2026-04-15 22h21.11.665738 +0800,
4,1,conjunction,right,19,19,0,right,1,1.0473173999926075,None,,,,,0,19,19,30,62.878048999991734,,,,,,,,,,,,,,,,,62.86330510000698,62.878048999991734,63.394400399993174,63.36258000001544,63.3860246000113,63.394400399993174,64.44782479997957,,,,,,,,64.44799529999727,64.46090459998231,64.94494389998727,,64.9612639999832,,,,,,,,right,1,1.0473173999926075,None,,,,4,001,2026-04-15_22h21.11.416,midterm_project,,2026.1.1,59.969367630186596,2026-04-15 22h21.11.665738 +0800,
4,1,feature,right,20,20,0,right,1,0.7591276000021026,None,,,,,0,20,20,24,64.9612639999832,,,,,,,,,,,,,,,,,64.94529730000068,64.9612639999832,65.4686653999961,65.44518599996809,65.4607088000048,65.4686653999961,66.23012749996269,,,,,,,,66.23033319995739,66.24419789999956,66.72837659996003,,66.74406799999997,,,,,,,,right,1,0.7591276000021026,None,,,,4,001,2026-04-15_22h21.11.416,midterm_project,,2026.1.1,59.969367630186596,2026-04-15 22h21.11.665738 +0800,
4,0,conjunction,left,21,21,0,left,1,0.7669532999861985,None,,,,,0,21,21,21,66.74406799999997,,,,,,,,,,,,,,,,,66.72892099997262,66.74406799999997,67.26039849995868,67.22839329997078,67.25362829997903,67.26039849995868,68.02890279999701,,,,,,,,68.02899479999905,68.04384329996537,68.52909889997682,,68.54445729998406,,,,,,,,left,1,0.7669532999861985,None,,,,4,001,2026-04-15_22h21.11.416,midterm_project,,2026.1.1,59.969367630186596,2026-04-15 22h21.11.665738 +0800,
12,0,feature,left,22,22,0,left,1,0.7924842999782413,None,,,,,0,22,22,4,68.54445729998406,,,,,,,,,,,,,,,,,68.52984579995973,68.54445729998406,69.07272249995731,69.02829439996276,69.06143050000537,69.07272249995731,69.88067300000694,,,,,,,,69.88081770000281,69.89376479998464,70.37775290000718,,70.3938979000086,,,,,,,,left,1,0.7924842999782413,None,,,,4,001,2026-04-15_22h21.11.416,midterm_project,,2026.1.1,59.969367630186596,2026-04-15 22h21.11.665738 +0800,
12,1,feature,right,23,23,0,right,1,0.9540744999540038,None,,,,,0,23,23,1,70.3938979000086,,,,,,,,,,,,,,,,,70.37820039998041,70.3938979000086,70.92346570000518,70.87739799998235,70.91227749997051,70.92346570000518,71.88008360000094,,,,,,,,71.88019509997685,71.89315969997551,72.37700430001132,,72.39331399998628,,,,,,,,right,1,0.9540744999540038,None,,,,4,001,2026-04-15_22h21.11.416,midterm_project,,2026.1.1,59.969367630186596,2026-04-15 22h21.11.665738 +0800,
12,1,conjunction,right,24,24,0,right,1,0.8499214999610558,None,,,,,0,24,24,19,72.39331399998628,,,,,,,,,,,,,,,,,72.3772917999886,72.39331399998628,72.9404711999814,72.8777143000043,72.92877429997316,72.9404711999814,73.79565589997219,,,,,,,,73.79576339997584,73.80969919997733,74.29366219998337,,74.30974709999282,,,,,,,,right,1,0.8499214999610558,None,,,,4,001,2026-04-15_22h21.11.416,midterm_project,,2026.1.1,59.969367630186596,2026-04-15 22h21.11.665738 +0800,
4,1,feature,right,25,25,0,right,1,0.6937874999712221,None,,,,,0,25,25,12,74.30974709999282,,,,,,,,,,,,,,,,,74.29401319997851,74.30974709999282,74.80947310000192,74.7934271999984,74.802529699984,74.80947310000192,75.51093270001002,,,,,,,,75.51105299999472,75.52615240000887,76.0102121999953,,76.0269993999973,,,,,,,,right,1,0.6937874999712221,None,,,,4,001,2026-04-15_22h21.11.416,midterm_project,,2026.1.1,59.969367630186596,2026-04-15 22h21.11.665738 +0800,
4,1,conjunction,right,26,26,0,right,1,0.9568538999883458,None,,,,,0,26,26,18,76.0269993999973,,,,,,,,,,,,,,,,,76.010736599972,76.0269993999973,76.54543509997893,76.51060290000169,76.53675919998204,76.54543509997893,77.51063510001404,,,,,,,,77.51075640000636,77.5257380999974,78.01093419996323,,78.02686290000565,,,,,,,,right,1,0.9568538999883458,None,,,,4,001,2026-04-15_22h21.11.416,midterm_project,,2026.1.1,59.969367630186596,2026-04-15 22h21.11.665738 +0800,
4,1,conjunction,right,27,27,0,right,1,0.468031800002791,None,,,,,0,27,27,6,78.02686290000565,,,,,,,,,,,,,,,,,78.01160989998607,78.02686290000565,78.54783120000502,78.5114167999709,78.53946930001257,78.54783120000502,79.02780049998546,,,,,,,,79.02795560000231,79.04263099998934,79.52779119997285,,79.54324440000346,,,,,,,,right,1,0.468031800002791,None,,,,4,001,2026-04-15_22h21.11.416,midterm_project,,2026.1.1,59.969367630186596,2026-04-15 22h21.11.665738 +0800,
24,1,conjunction,right,28,28,0,right,1,0.8400567999924533,None,,,,,0,28,28,32,79.54324440000346,,,,,,,,,,,,,,,,,79.52862409997033,79.54324440000346,80.12505599996075,80.02740159997484,80.10536829999182,80.12505599996075,80.9797561999876,,,,,,,,80.97985080000944,80.99220729997614,81.47615509998286,,81.49230829998851,,,,,,,,right,1,0.8400567999924533,None,,,,4,001,2026-04-15_22h21.11.416,midterm_project,,2026.1.1,59.969367630186596,2026-04-15 22h21.11.665738 +0800,
24,0,feature,left,29,29,0,left,1,0.8276069000130519,None,,,,,0,29,29,5,81.49230829998851,,,,,,,,,,,,,,,,,81.47653759998502,81.49230829998851,82.03790289995959,81.97562260000268,82.01924809999764,82.03790289995959,82.88041310000699,,,,,,,,82.88053069997113,82.89192049996927,83.37576689996058,,83.3919012999977,,,,,,,,left,1,0.8276069000130519,None,,,,4,001,2026-04-15_22h21.11.416,midterm_project,,2026.1.1,59.969367630186596,2026-04-15 22h21.11.665738 +0800,
24,1,feature,right,30,30,0,right,1,0.6108648999943398,None,,,,,0,30,30,2,83.3919012999977,,,,,,,,,,,,,,,,,83.37622219999321,83.3919012999977,83.94223799998872,83.87592059996678,83.9231526000076,83.94223799998872,84.56180550000863,,,,,,,,84.56189650000306,84.57529519998934,85.06031799997436,,85.07492889999412,,,,,,,,right,1,0.6108648999943398,None,,,,4,001,2026-04-15_22h21.11.416,midterm_project,,2026.1.1,59.969367630186596,2026-04-15 22h21.11.665738 +0800,
4,0,feature,left,31,31,0,left,1,1.2424222000408918,None,,,,,0,31,31,27,85.07492889999412,,,,,,,,,,,,,,,,,85.06100280000828,85.07492889999412,85.58671810000669,85.55953149998095,85.57763969997177,85.58671810000669,86.84364809998078,,,,,,,,86.84377729997505,86.8579501999775,87.34270899998955,,87.35853769996902,,,,,,,,left,1,1.2424222000408918,None,,,,4,001,2026-04-15_22h21.11.416,midterm_project,,2026.1.1,59.969367630186596,2026-04-15 22h21.11.665738 +0800,
4,0,feature,left,32,32,0,left,1,0.67832870001439,None,,,,,0,32,32,3,87.35853769996902,,,,,,,,,,,,,,,,,87.34345559997018,87.35853769996902,87.86277979996521,87.84201630001189,87.85516719997395,87.86277979996521,88.54595329996664,,,,,,,,88.54613949998748,88.55795799999032,89.04168669995852,,89.057886399969,,,,,,,,left,1,0.67832870001439,None,,,,4,001,2026-04-15_22h21.11.416,midterm_project,,2026.1.1,59.969367630186596,2026-04-15 22h21.11.665738 +0800,
24,1,conjunction,right,33,33,0,right,1,0.8630411999765784,None,,,,,0,33,33,8,89.057886399969,,,,,,,,,,,,,,,,,89.04209120001178,89.057886399969,89.65258309995988,89.5424975999631,89.63340880000032,89.65258309995988,90.5286334999837,,,,,,,,90.52873459999682,90.54089890001342,91.02431489998708,,91.04074019996915,,,,,,,,right,1,0.8630411999765784,None,,,,4,001,2026-04-15_22h21.11.416,midterm_project,,2026.1.1,59.969367630186596,2026-04-15 22h21.11.665738 +0800,
12,0,feature,left,34,34,0,left,1,1.1136758000357077,None,,,,,0,34,34,16,91.04074019996915,,,,,,,,,,,,,,,,,91.02456329995766,91.04074019996915,91.56452049996005,91.52463190001436,91.55333480000263,91.56452049996005,92.67897810001159,,,,,,,,92.67915229999926,92.69064399995841,93.17558949999511,,93.19119799998589,,,,,,,,left,1,1.1136758000357077,None,,,,4,001,2026-04-15_22h21.11.416,midterm_project,,2026.1.1,59.969367630186596,2026-04-15 22h21.11.665738 +0800,
12,1,conjunction,right,35,35,0,right,1,0.6660331999883056,None,,,,,0,35,35,7,93.19119799998589,,,,,,,,,,,,,,,,,93.17652539996197,93.19119799998589,93.72455769998487,93.67431139998371,93.71303589997115,93.72455769998487,94.39437970001018,,,,,,,,94.39458550000563,94.40743039996596,94.89166989998193,,94.9267295000027,,,,,,,,right,1,0.6660331999883056,None,,,,4,001,2026-04-15_22h21.11.416,midterm_project,,2026.1.1,59.969367630186596,2026-04-15 22h21.11.665738 +0800,
,,,,,,,,,,,,,,,,,,,,,,,,,,,,,,,,,,,,,,,,,,,,,,,,,,,,,,,,,,,,,,,,,,94.89203200000338,94.9267295000027,97.90677509998204,4,001,2026-04-15_22h21.11.416,midterm_project,,2026.1.1,59.969367630186596,2026-04-15 22h21.11.665738 +0800,
