set_size,target_present,condition_type,corr_resp,thisN,thisTrialN,thisRepN,key_resp.keys,key_resp.corr,key_resp.rt,key_resp.duration,practice_loop.thisRepN,practice_loop.thisTrialN,practice_loop.thisN,practice_loop.thisIndex,formal_loop.thisRepN,formal_loop.thisTrialN,formal_loop.thisN,formal_loop.thisIndex,thisRow.t,notes,piloting,start.started,open_text.started,start_key.started,start.stopped,start_key.keys,start_key.rt,start_key.duration,instr_practice.started,prac_text.started,prac_key.started,instr_practice.stopped,prac_key.keys,prac_key.rt,prac_key.duration,fixation.started,fix_text.started,fixation.stopped,trial.started,key_resp.started,trial.stopped,practice_loop.key_resp.keys,practice_loop.key_resp.corr,feedback.started,fb_text.started,feedback.stopped,ITI.started,ITI_text.started,ITI.stopped,practice_loop.key_resp.rt,practice_loop.key_resp.duration,fb_text.stopped,ITI_text.stopped,fix_text.stopped,instr_formal.started,formal_text.started,formal_key.started,instr_formal.stopped,formal_key.keys,formal_key.rt,formal_key.duration,formal_loop.key_resp.keys,formal_loop.key_resp.corr,formal_loop.key_resp.rt,formal_loop.key_resp.duration,thanks.started,thanks_text.started,participant,session,date,expName,expVersion,psychopyVersion,frameRate,expStart,
,,,,,,,,,,,,,,,,,,,,,False,0.0030470999772660434,0.009317099989857525,0.009317099989857525,1.1855146000161767,space,1.1676869000075385,None,,,,,,,,,,,,,,,,,,,,,,,,,,,,,,,,,,,,,,,,5,001,2026-04-15_22h23.16.963,midterm_project,,2026.1.1,60.022820689479786,2026-04-15 22h23.17.193531 +0800,
,,,,,,,,,,,,,,,,,,,,,,,,,,,,,1.18558980000671,1.1944617999834009,1.1944617999834009,3.628224299987778,space,2.431505700049456,None,,,,,,,,,,,,,,,,,,,,,,,,,,,,,,,,,5,001,2026-04-15_22h23.16.963,midterm_project,,2026.1.1,60.022820689479786,2026-04-15 22h23.17.193531 +0800,
12,0,feature,left,0,0,0,None,0,,,0,0,0,2,,,,,3.645309699990321,,,,,,,,,,,,,,,,,3.641134899982717,3.645309699990321,4.1289012000197545,4.170507800008636,4.184094899974298,6.1433737999759614,None,0,6.143468900001608,6.160192299983464,7.643136399972718,7.643184799992014,7.659762799972668,8.14456699998118,,,,,,,,,,,,,,,,,,,5,001,2026-04-15_22h23.16.963,midterm_project,,2026.1.1,60.022820689479786,2026-04-15 22h23.17.193531 +0800,
24,1,feature,right,1,1,0,right,1,0.8352532000280917,None,0,1,1,1,,,,,8.160301900003105,,,,,,,,,,,,,,,,,8.145231699978467,8.160301900003105,8.644143000012264,8.69600920000812,8.715062999981456,9.56429189996561,right,1,9.564403199998196,9.579385299992282,11.076644700020552,11.07672219997039,11.093094200012274,11.577311199973337,0.8352532000280917,None,,,,,,,,,,,,,,,,,5,001,2026-04-15_22h23.16.963,midterm_project,,2026.1.1,60.022820689479786,2026-04-15 22h23.17.193531 +0800,
4,1,conjunction,right,2,2,0,right,1,0.7812732000020333,None,0,2,2,3,,,,,11.593278300017118,,,,,,,,,,,,,,,,,11.5779174999916,11.593278300017118,12.07745129999239,12.115702099981718,12.122735799988732,12.91189960000338,right,1,12.912062100018375,12.926770200021565,14.410733499971684,14.410933499981184,14.425954499980435,14.910924799973145,0.7812732000020333,None,14.425954499980435,14.926672099973075,,,,,,,,,,,,,,,5,001,2026-04-15_22h23.16.963,midterm_project,,2026.1.1,60.022820689479786,2026-04-15 22h23.17.193531 +0800,
4,1,feature,right,3,3,0,right,1,1.07541620003758,None,0,3,3,0,,,,,14.926672099973075,,,,,,,,,,,,,,,,,14.911618700018153,14.926672099973075,15.410046899982262,15.427651299978606,15.436667100002524,16.526353899971582,right,1,16.526437899970915,16.541949899983592,18.02651049999986,18.026590399967972,18.04204019997269,18.52516309998464,1.07541620003758,None,18.04204019997269,18.541596699971706,15.436667100002524,,,,,,,,,,,,,,5,001,2026-04-15_22h23.16.963,midterm_project,,2026.1.1,60.022820689479786,2026-04-15 22h23.17.193531 +0800,
12,0,conjunction,left,4,4,0,left,1,1.1045287000015378,None,0,4,4,5,,,,,18.541596699971706,,,,,,,,,,,,,,,,,18.52531789999921,18.541596699971706,19.02689029998146,19.072903599997517,19.0839347000001,20.195171399973333,left,1,20.19528809998883,20.208502499968745,21.693018699996173,21.693095099995844,21.70812720002141,22.191725499986205,1.1045287000015378,None,21.70812720002141,22.208212699973956,19.0839347000001,,,,,,,,,,,,,,5,001,2026-04-15_22h23.16.963,midterm_project,,2026.1.1,60.022820689479786,2026-04-15 22h23.17.193531 +0800,
24,1,conjunction,right,5,5,0,right,1,0.9699476000387222,None,0,5,5,4,,,,,22.208212699973956,,,,,,,,,,,,,,,,,22.192045199975837,22.208212699973956,22.69331190001685,22.77345019998029,22.792664300010074,23.777908399992157,right,1,23.777989499969408,23.791244100022595,25.275577299995348,25.27564639999764,25.291311500011943,25.775283599970862,0.9699476000387222,None,25.291311500011943,25.79402339999797,22.792664300010074,,,,,,,,,,,,,,5,001,2026-04-15_22h23.16.963,midterm_project,,2026.1.1,60.022820689479786,2026-04-15 22h23.17.193531 +0800,
,,,,,,,,,,,,,,,,,,,,,,,,,,,,,,,,,,,,,,,,,,,,,,,,,,,,,,,25.775541200011503,25.79402339999797,25.79402339999797,27.2421711999923,space,1.4446469999966212,None,,,,,,,5,001,2026-04-15_22h23.16.963,midterm_project,,2026.1.1,60.022820689479786,2026-04-15 22h23.17.193531 +0800,
24,1,conjunction,right,0,0,0,right,1,1.3550318000488915,None,,,,,0,0,0,32,27.26252879999811,,,,,,,,,,,,,,,,,27.25903620000463,27.26252879999811,27.757301900011953,27.910879399976693,27.933490599971265,29.295211699965876,,,,,,29.295323099999223,29.307320899970364,29.791460899985395,,,,29.807797599991318,,,,,,,,,right,1,1.3550318000488915,None,,,5,001,2026-04-15_22h23.16.963,midterm_project,,2026.1.1,60.022820689479786,2026-04-15 22h23.17.193531 +0800,
4,0,feature,left,1,1,0,left,1,1.4794764000107534,None,,,,,0,1,1,3,29.807797599991318,,,,,,,,,,,,,,,,,29.791926399979275,29.807797599991318,30.290832299971953,30.303184600023087,30.31020050001098,31.793317699979525,,,,,,31.793511900003068,31.806944800016936,32.29056069999933,,,,32.30696139996871,30.31020050001098,,,,,,,,left,1,1.4794764000107534,None,,,5,001,2026-04-15_22h23.16.963,midterm_project,,2026.1.1,60.022820689479786,2026-04-15 22h23.17.193531 +0800,
4,0,feature,left,2,2,0,left,1,0.47051710000960156,None,,,,,0,2,2,15,32.30696139996871,,,,,,,,,,,,,,,,,32.29098679998424,32.30696139996871,32.79174209997291,32.81068549997872,32.81995249999454,33.295561200007796,,,,,,33.29599459999008,33.30671769997571,33.790952100011054,,,,33.80732989998069,32.81995249999454,,,,,,,,left,1,0.47051710000960156,None,,,5,001,2026-04-15_22h23.16.963,midterm_project,,2026.1.1,60.022820689479786,2026-04-15 22h23.17.193531 +0800,
4,1,feature,right,3,3,0,right,1,0.5422051000059582,None,,,,,0,3,3,0,33.80732989998069,,,,,,,,,,,,,,,,,33.791456200007815,33.80732989998069,34.30634579999605,34.314512600016315,34.32271520001814,34.87580550002167,,,,,,34.87600139999995,34.88969709997764,35.37331419996917,,,,35.38930799998343,,,,,,,,,right,1,0.5422051000059582,None,,,5,001,2026-04-15_22h23.16.963,midterm_project,,2026.1.1,60.022820689479786,2026-04-15 22h23.17.193531 +0800,
4,1,conjunction,right,4,4,0,right,1,0.6069005000172183,None,,,,,0,4,4,6,35.38930799998343,,,,,,,,,,,,,,,,,35.37353450001683,35.38930799998343,35.873444799974095,35.888902899983805,35.89571349998005,36.5088218000019,,,,,,36.509047299972735,36.52285660000052,37.00753339997027,,,,37.023340500018094,35.89571349998005,,,,,,,,right,1,0.6069005000172183,None,,,5,001,2026-04-15_22h23.16.963,midterm_project,,2026.1.1,60.022820689479786,2026-04-15 22h23.17.193531 +0800,
12,0,feature,left,5,5,0,left,1,0.5814055999508128,None,,,,,0,5,5,4,37.023340500018094,,,,,,,,,,,,,,,,,37.008275599975605,37.023340500018094,37.50645499996608,37.53198520001024,37.54431129997829,38.14224010001635,,,,,,38.14236009999877,38.155999100010376,38.6408073999919,,,,38.65607500000624,37.54431129997829,,,,,,,,left,1,0.5814055999508128,None,,,5,001,2026-04-15_22h23.16.963,midterm_project,,2026.1.1,60.022820689479786,2026-04-15 22h23.17.193531 +0800,
4,1,feature,right,6,6,0,right,1,0.5162309000152163,None,,,,,0,6,6,12,38.65607500000624,,,,,,,,,,,,,,,,,38.64149579999503,38.65607500000624,39.13951950002229,39.15219940000679,39.159571299969684,39.69029790000059,,,,,,39.690399800019804,39.70562229998177,40.18967260001227,,,,40.2058406000142,39.159571299969684,,,,,,,,right,1,0.5162309000152163,None,,,5,001,2026-04-15_22h23.16.963,midterm_project,,2026.1.1,60.022820689479786,2026-04-15 22h23.17.193531 +0800,
12,1,conjunction,right,7,7,0,right,1,0.570391200017184,None,,,,,0,7,7,31,40.2058406000142,,,,,,,,,,,,,,,,,40.190052399993874,40.2058406000142,40.69087829999626,40.74527259997558,40.757216199999675,41.3297392000095,,,,,,41.330101799976546,41.33895240002312,41.822370300011244,,,,41.83883710001828,40.757216199999675,,,,,,,,right,1,0.570391200017184,None,,,5,001,2026-04-15_22h23.16.963,midterm_project,,2026.1.1,60.022820689479786,2026-04-15 22h23.17.193531 +0800,
24,1,feature,right,8,8,0,right,1,0.525135500007309,None,,,,,0,8,8,26,41.83883710001828,,,,,,,,,,,,,,,,,41.822618999984115,41.83883710001828,42.32308549998561,42.368907600000966,42.387862299976405,42.92536280001514,,,,,,42.92545340000652,42.938741000019945,43.422810500022024,,,,43.43888319999678,42.387862299976405,,,,,,,,right,1,0.525135500007309,None,,,5,001,2026-04-15_22h23.16.963,midterm_project,,2026.1.1,60.022820689479786,2026-04-15 22h23.17.193531 +0800,
4,0,conjunction,left,9,9,0,left,1,0.7679285000194795,None,,,,,0,9,9,9,43.43888319999678,,,,,,,,,,,,,,,,,43.423305200005416,43.43888319999678,43.92235469998559,43.939997099980246,43.946182499988936,44.72322869999334,,,,,,44.72334999998566,44.738516699988395,45.22271220001858,,,,45.23844200000167,43.946182499988936,,,,,,,,left,1,0.7679285000194795,None,,,5,001,2026-04-15_22h23.16.963,midterm_project,,2026.1.1,60.022820689479786,2026-04-15 22h23.17.193531 +0800,
24,1,conjunction,right,10,10,0,right,1,1.0000573000288568,None,,,,,0,10,10,20,45.23844200000167,,,,,,,,,,,,,,,,,45.22318129998166,45.23844200000167,45.72223620000295,45.79307279997738,45.81331210001372,46.82514829997672,,,,,,46.825233999988995,46.83813200000441,47.32295910001267,,,,47.3383821999887,45.81331210001372,,,,,,,,right,1,1.0000573000288568,None,,,5,001,2026-04-15_22h23.16.963,midterm_project,,2026.1.1,60.022820689479786,2026-04-15 22h23.17.193531 +0800,
24,1,feature,right,11,11,0,right,1,0.538957400014624,None,,,,,0,11,11,2,47.3383821999887,,,,,,,,,,,,,,,,,47.323595999972895,47.3383821999887,47.82168419996742,47.8673950000084,47.88665280002169,48.4414536000113,,,,,,48.441537800012156,48.454711799975485,48.93891620001523,,,,48.95486409997102,47.88665280002169,,,,,,,,right,1,0.538957400014624,None,,,5,001,2026-04-15_22h23.16.963,midterm_project,,2026.1.1,60.022820689479786,2026-04-15 22h23.17.193531 +0800,
4,0,feature,left,12,12,0,left,1,0.9729889999725856,None,,,,,0,12,12,27,48.95486409997102,,,,,,,,,,,,,,,,,48.93957190000219,48.95486409997102,49.4390432999935,49.45957890001591,49.46901499998057,50.45549809996737,,,,,,50.455604600021616,50.47095260000788,50.95511879998958,,,,50.971362599986605,49.46901499998057,,,,,,,,left,1,0.9729889999725856,None,,,5,001,2026-04-15_22h23.16.963,midterm_project,,2026.1.1,60.022820689479786,2026-04-15 22h23.17.193531 +0800,
24,0,conjunction,left,13,13,0,left,1,0.9286930999951437,None,,,,,0,13,13,35,50.971362599986605,,,,,,,,,,,,,,,,,50.955493699992076,50.971362599986605,51.4562517000013,51.5391704000067,51.559771900007036,52.49309890001314,,,,,,52.49321589997271,52.504079499980435,52.987637699989136,,,,53.00398859998677,51.559771900007036,,,,,,,,left,1,0.9286930999951437,None,,,5,001,2026-04-15_22h23.16.963,midterm_project,,2026.1.1,60.022820689479786,2026-04-15 22h23.17.193531 +0800,
12,0,conjunction,left,14,14,0,left,1,0.619427400000859,None,,,,,0,14,14,34,53.00398859998677,,,,,,,,,,,,,,,,,52.987996299983934,53.00398859998677,53.4876959999674,53.533027299970854,53.544296799984295,54.1735262000002,,,,,,54.17364049999742,54.18716769997263,54.6706225000089,,,,54.68692609999562,53.544296799984295,,,,,,,,left,1,0.619427400000859,None,,,5,001,2026-04-15_22h23.16.963,midterm_project,,2026.1.1,60.022820689479786,2026-04-15 22h23.17.193531 +0800,
12,0,feature,left,15,15,0,left,1,0.7605695999809541,None,,,,,0,15,15,28,54.68692609999562,,,,,,,,,,,,,,,,,54.670930000022054,54.68692609999562,55.17105970002012,55.20275679999031,55.21553320001112,55.99010819999967,,,,,,55.99023900000611,56.00369529996533,56.48709120001877,,,,56.503716800012626,55.21553320001112,,,,,,,,left,1,0.7605695999809541,None,,,5,001,2026-04-15_22h23.16.963,midterm_project,,2026.1.1,60.022820689479786,2026-04-15 22h23.17.193531 +0800,
4,0,conjunction,left,16,16,0,left,1,0.6850919999997132,None,,,,,0,16,16,33,56.503716800012626,,,,,,,,,,,,,,,,,56.48735920002218,56.503716800012626,56.98744320002152,57.00904029997764,57.015987399965525,57.70501839998178,,,,,,57.70514109998476,57.72012369998265,58.20421080000233,,,,58.219997800013516,57.015987399965525,,,,,,,,left,1,0.6850919999997132,None,,,5,001,2026-04-15_22h23.16.963,midterm_project,,2026.1.1,60.022820689479786,2026-04-15 22h23.17.193531 +0800,
12,1,conjunction,right,17,17,0,right,1,0.5045717000029981,None,,,,,0,17,17,19,58.219997800013516,,,,,,,,,,,,,,,,,58.20471479999833,58.219997800013516,58.70451160002267,58.74711529997876,58.75872749998234,59.272215500008315,,,,,,59.2723066000035,59.2867129999795,59.771314200013876,,,,59.78716219996568,58.75872749998234,,,,,,,,right,1,0.5045717000029981,None,,,5,001,2026-04-15_22h23.16.963,midterm_project,,2026.1.1,60.022820689479786,2026-04-15 22h23.17.193531 +0800,
12,1,feature,right,18,18,0,right,1,0.6907333999988623,None,,,,,0,18,18,25,59.78716219996568,,,,,,,,,,,,,,,,,59.77187649998814,59.78716219996568,60.27033799997298,60.29883410001639,60.310224000015296,61.005993900005706,,,,,,61.00609149999218,61.01949209999293,61.503553899994586,,,,61.51961419999134,60.310224000015296,,,,,,,,right,1,0.6907333999988623,None,,,5,001,2026-04-15_22h23.16.963,midterm_project,,2026.1.1,60.022820689479786,2026-04-15 22h23.17.193531 +0800,
24,0,conjunction,left,19,19,0,left,1,1.1649262999999337,None,,,,,0,19,19,11,61.51961419999134,,,,,,,,,,,,,,,,,61.50392529997043,61.51961419999134,62.00350739998976,62.0782514999737,62.09774519997882,63.27301299996907,,,,,,63.27310120000038,63.28604530001758,63.7697253000224,,,,63.786021600011736,62.09774519997882,,,,,,,,left,1,1.1649262999999337,None,,,5,001,2026-04-15_22h23.16.963,midterm_project,,2026.1.1,60.022820689479786,2026-04-15 22h23.17.193531 +0800,
12,1,conjunction,right,20,20,0,left,0,1.1401679000118747,None,,,,,0,20,20,7,63.786021600011736,,,,,,,,,,,,,,,,,63.77000439999392,63.786021600011736,64.26970060000895,64.31189050001558,64.32357730000513,65.4726991999778,,,,,,65.47285059996648,65.48572669998975,65.96993409999413,,,,65.98660150001524,64.32357730000513,,,,,,,,left,0,1.1401679000118747,None,,,5,001,2026-04-15_22h23.16.963,midterm_project,,2026.1.1,60.022820689479786,2026-04-15 22h23.17.193531 +0800,
4,0,conjunction,left,21,21,0,left,1,0.6667554999585263,None,,,,,0,21,21,21,65.98660150001524,,,,,,,,,,,,,,,,,65.97038790001534,65.98660150001524,66.46972260001348,66.49246829998447,66.49892260000343,67.17150649998803,,,,,,67.1716586999828,67.18563269998413,67.67089239996858,,,,67.68564360000892,66.49892260000343,,,,,,,,left,1,0.6667554999585263,None,,,5,001,2026-04-15_22h23.16.963,midterm_project,,2026.1.1,60.022820689479786,2026-04-15 22h23.17.193531 +0800,
24,1,conjunction,right,22,22,0,right,1,0.8730595000088215,None,,,,,0,22,22,8,67.68564360000892,,,,,,,,,,,,,,,,,67.67164259997662,67.68564360000892,68.17026839999016,68.25852500001201,68.27816170000006,69.15609820000827,,,,,,69.15617949998705,69.16861890000291,69.65243050002027,,,,69.66894269996556,68.27816170000006,,,,,,,,right,1,0.8730595000088215,None,,,5,001,2026-04-15_22h23.16.963,midterm_project,,2026.1.1,60.022820689479786,2026-04-15 22h23.17.193531 +0800,
24,0,feature,left,23,23,0,left,1,0.6778469000128098,None,,,,,0,23,23,29,69.66894269996556,,,,,,,,,,,,,,,,,69.6525893000071,69.66894269996556,70.15253939997638,70.18884399998933,70.21000299998559,70.88881580001907,,,,,,70.8888865999761,70.9019021000131,71.3870361999725,,,,71.40170689998195,70.21000299998559,,,,,,,,left,1,0.6778469000128098,None,,,5,001,2026-04-15_22h23.16.963,midterm_project,,2026.1.1,60.022820689479786,2026-04-15 22h23.17.193531 +0800,
12,1,feature,right,24,24,0,right,1,0.7188975000171922,None,,,,,0,24,24,13,71.40170689998195,,,,,,,,,,,,,,,,,71.3879063000204,71.40170689998195,71.88571130001219,71.92077819997212,71.9318665000028,72.65443370002322,,,,,,72.6545543000102,72.66827089997241,73.15192249999382,,,,73.16817279998213,71.9318665000028,,,,,,,,right,1,0.7188975000171922,None,,,5,001,2026-04-15_22h23.16.963,midterm_project,,2026.1.1,60.022820689479786,2026-04-15 22h23.17.193531 +0800,
24,0,conjunction,left,25,25,0,left,1,0.9687804999994114,None,,,,,0,25,25,23,73.16817279998213,,,,,,,,,,,,,,,,,73.152167799999,73.16817279998213,73.65279069996905,73.73729879996972,73.75701449997723,74.73856590001378,,,,,,74.7386612999835,74.75146699999459,75.23538359999657,,,,75.25126459996682,73.75701449997723,,,,,,,,left,1,0.9687804999994114,None,,,5,001,2026-04-15_22h23.16.963,midterm_project,,2026.1.1,60.022820689479786,2026-04-15 22h23.17.193531 +0800,
12,0,conjunction,left,26,26,0,left,1,0.9387541000032797,None,,,,,0,26,26,10,75.25126459996682,,,,,,,,,,,,,,,,,75.23585060000187,75.25126459996682,75.73610739997821,75.78765499999281,75.79968950001057,76.75356089998968,,,,,,76.7536606999929,76.76774589996785,77.25117160001537,,,,77.26739059999818,75.79968950001057,,,,,,,,left,1,0.9387541000032797,None,,,5,001,2026-04-15_22h23.16.963,midterm_project,,2026.1.1,60.022820689479786,2026-04-15 22h23.17.193531 +0800,
24,1,feature,right,27,27,0,right,1,0.5407597000012174,None,,,,,0,27,27,14,77.26739059999818,,,,,,,,,,,,,,,,,77.25145490001887,77.26739059999818,77.75261419999879,77.81620679999469,77.83553739998024,78.37899950001156,,,,,,78.37916150002275,78.3838932000217,78.86922819999745,,,,78.88411629997427,77.83553739998024,,,,,,,,right,1,0.5407597000012174,None,,,5,001,2026-04-15_22h23.16.963,midterm_project,,2026.1.1,60.022820689479786,2026-04-15 22h23.17.193531 +0800,
24,0,feature,left,28,28,0,left,1,0.6212871000170708,None,,,,,0,28,28,17,78.88411629997427,,,,,,,,,,,,,,,,,78.86990160000278,78.88411629997427,79.3675830999855,79.40912560001016,79.42936790001113,80.05464400001802,,,,,,80.0547201000154,80.06731850001961,80.55056940001668,,,,80.56714150001062,79.42936790001113,,,,,,,,left,1,0.6212871000170708,None,,,5,001,2026-04-15_22h23.16.963,midterm_project,,2026.1.1,60.022820689479786,2026-04-15 22h23.17.193531 +0800,
12,0,feature,left,29,29,0,left,1,0.4228389000054449,None,,,,,0,29,29,16,80.56714150001062,,,,,,,,,,,,,,,,,80.55086770001799,80.56714150001062,81.05222969996976,81.10212609998416,81.11619179998524,81.55320999998366,,,,,,81.55332900001667,81.56708750000689,82.05129450000823,,,,82.06746869999915,81.11619179998524,,,,,,,,left,1,0.4228389000054449,None,,,5,001,2026-04-15_22h23.16.963,midterm_project,,2026.1.1,60.022820689479786,2026-04-15 22h23.17.193531 +0800,
4,1,feature,right,30,30,0,right,1,0.8017556000268087,None,,,,,0,30,30,24,82.06746869999915,,,,,,,,,,,,,,,,,82.05176110001048,82.06746869999915,82.55216399999335,82.56923969998024,82.57646870001918,83.38600009999936,,,,,,83.38616200000979,83.40040559996851,83.88538220000919,,,,83.90113189996919,82.57646870001918,,,,,,,,right,1,0.8017556000268087,None,,,5,001,2026-04-15_22h23.16.963,midterm_project,,2026.1.1,60.022820689479786,2026-04-15 22h23.17.193531 +0800,
4,1,conjunction,right,31,31,0,left,0,0.4889583000331186,None,,,,,0,31,31,18,83.90113189996919,,,,,,,,,,,,,,,,,83.88614820002113,83.90113189996919,84.38555279996945,84.4181910000043,84.42696969996905,84.92221940000309,,,,,,84.9224869000027,84.93313700001454,85.41821570001775,,,,85.43377050000709,84.42696969996905,,,,,,,,left,0,0.4889583000331186,None,,,5,001,2026-04-15_22h23.16.963,midterm_project,,2026.1.1,60.022820689479786,2026-04-15 22h23.17.193531 +0800,
12,1,feature,right,32,32,0,right,1,0.5192136999685317,None,,,,,0,32,32,1,85.43377050000709,,,,,,,,,,,,,,,,,85.4192691000062,85.43377050000709,85.91742259997409,85.95661380002275,85.97033769998234,86.50277109997114,,,,,,86.50289920001524,86.51674300001469,87.0008925999864,,,,87.01702789997216,85.97033769998234,,,,,,,,right,1,0.5192136999685317,None,,,5,001,2026-04-15_22h23.16.963,midterm_project,,2026.1.1,60.022820689479786,2026-04-15 22h23.17.193531 +0800,
24,0,feature,left,33,33,0,left,1,0.7703258999972604,None,,,,,0,33,33,5,87.01702789997216,,,,,,,,,,,,,,,,,87.00153459998546,87.01702789997216,87.50021159998141,87.54924000002211,87.56845550000435,88.34246529999655,,,,,,88.34259209997253,88.3493253000197,88.83291489997646,,,,88.84907130000647,87.56845550000435,,,,,,,,left,1,0.7703258999972604,None,,,5,001,2026-04-15_22h23.16.963,midterm_project,,2026.1.1,60.022820689479786,2026-04-15 22h23.17.193531 +0800,
12,0,conjunction,left,34,34,0,left,1,1.0251244999817573,None,,,,,0,34,34,22,88.84907130000647,,,,,,,,,,,,,,,,,88.833200699999,88.84907130000647,89.33423859998584,89.38932580000255,89.40069330000551,90.4350834999932,,,,,,90.43519280001055,90.44907289999537,90.93392839998705,,,,90.94892599998275,89.40069330000551,,,,,,,,left,1,1.0251244999817573,None,,,5,001,2026-04-15_22h23.16.963,midterm_project,,2026.1.1,60.022820689479786,2026-04-15 22h23.17.193531 +0800,
4,1,conjunction,right,35,35,0,right,1,0.5758509000297636,None,,,,,0,35,35,30,90.94892599998275,,,,,,,,,,,,,,,,,90.93468050000956,90.94892599998275,91.43246470001759,91.44444880000083,91.4506926999893,92.03415780002251,,,,,,92.0342731999699,92.04877850000048,92.53369000001112,,,,92.57076669996604,91.4506926999893,,,,,,,,right,1,0.5758509000297636,None,,,5,001,2026-04-15_22h23.16.963,midterm_project,,2026.1.1,60.022820689479786,2026-04-15 22h23.17.193531 +0800,
,,,,,,,,,,,,,,,,,,,,,,,,,,,,,,,,,,,,,,,,,,,,,,,,,,,,,,,,,,,,,,,,,,92.5340872000088,92.57076669996604,,,,,,,,,
