thisN,thisTrialN,thisRepN,set_size,target_present,condition_type,corr_resp,prac_key_resp.keys,prac_key_resp.corr,prac_key_resp.rt,prac_key_resp.duration,key_resp.keys,key_resp.corr,key_resp.rt,key_resp.duration,key_rest.keys,key_rest.rt,key_rest.duration,practice_repeat_loop.thisRepN,practice_repeat_loop.thisTrialN,practice_repeat_loop.thisN,practice_repeat_loop.thisIndex,practice_loop.thisRepN,practice_loop.thisTrialN,practice_loop.thisN,practice_loop.thisIndex,formal_loop.thisRepN,formal_loop.thisTrialN,formal_loop.thisN,formal_loop.thisIndex,thisRow.t,notes,piloting,start.started,open_text.started,start_key.started,start.stopped,start_key.keys,start_key.rt,start_key.duration,instr_practice.started,prac_text.started,prac_key.started,instr_practice.stopped,prac_key.keys,prac_key.rt,prac_key.duration,reset_prac_acc.started,reset_prac_acc.stopped,fixation.started,fix_text.started,fixation.stopped,trial_prac.started,prac_key_resp.started,trial_prac.stopped,practice_loop.prac_key_resp.keys,practice_loop.prac_key_resp.corr,practice_loop.prac_key_resp.rt,practice_loop.prac_key_resp.duration,feedback.started,fb_text.started,feedback.stopped,ITI.started,ITI_text.started,ITI.stopped,fb_text.stopped,ITI_text.stopped,fix_text.stopped,prac_feedback.started,prac_fb_text.started,prac_feedback.stopped,instr_formal.started,formal_text.started,formal_key.started,instr_formal.stopped,formal_key.keys,formal_key.rt,formal_key.duration,trial.started,key_resp.started,trial.stopped,formal_loop.key_resp.keys,formal_loop.key_resp.corr,formal_loop.key_resp.rt,formal_loop.key_resp.duration,rest_routine.started,rest_routine.stopped,formal_loop.key_rest.keys,rest_text.started,key_rest.started,formal_loop.key_rest.rt,formal_loop.key_rest.duration,thanks.started,thanks_text.started,thanks.stopped,participant,session,date,expName,expVersion,psychopyVersion,frameRate,expStart,
,,,,,,,,,,,,,,,,,,,,,,,,,,,,,,,,False,0.002913300006184727,0.008877399959601462,0.008877399959601462,1.2684742999845184,space,1.2352948000188917,None,,,,,,,,,,,,,,,,,,,,,,,,,,,,,,,,,,,,,,,,,,,,,,,,,,,,,,,,808749,001,2026-04-19_21h42.41.521,midterm_project,,2026.1.1,60.07727139435495,2026-04-19 21h42.41.766365 +0800,
,,,,,,,,,,,,,,,,,,,,,,,,,,,,,,,,,,,,,,,,1.268565199978184,1.2783992000040598,1.2783992000040598,2.259814999997616,space,0.9664790999959223,None,,,,,,,,,,,,,,,,,,,,,,,,,,,,,,,,,,,,,,,,,,,,,,,,,808749,001,2026-04-19_21h42.41.521,midterm_project,,2026.1.1,60.07727139435495,2026-04-19 21h42.41.766365 +0800,
0,0,0,12,0,feature,left,left,1,0.7508038000087254,None,,,,,,,,0,0,0,0,0,0,0,2,,,,,2.322395199968014,,,,,,,,,,,,,,,,,2.2615583000006154,2.261591399961617,2.277884899987839,2.322395199968014,2.7758931000134908,2.8176379000069574,2.8309868999640457,3.596095699991565,left,1,0.7508038000087254,None,3.5962807000032626,3.6186441999743693,5.1088027000078,5.108867899980396,5.1251884999801405,5.6088407000061125,,,,,,,,,,,,,,,,,,,,,,,,,,,,,,,808749,001,2026-04-19_21h42.41.521,midterm_project,,2026.1.1,60.07727139435495,2026-04-19 21h42.41.766365 +0800,
1,1,0,24,1,conjunction,right,right,1,0.7090979000204243,None,,,,,,,,0,0,0,0,0,1,1,4,,,,,5.62539060000563,,,,,,,,,,,,,,,,,,,5.609449699986726,5.62539060000563,6.108463599986862,6.191548899980262,6.210120500007179,6.928060500009451,right,1,0.7090979000204243,None,6.9281532999593765,6.941292900010012,8.425571799976751,8.425641399982851,8.44089669996174,8.925323500006925,8.44089669996174,8.941281799983699,,,,,,,,,,,,,,,,,,,,,,,,,,,,,808749,001,2026-04-19_21h42.41.521,midterm_project,,2026.1.1,60.07727139435495,2026-04-19 21h42.41.766365 +0800,
2,2,0,4,1,conjunction,right,left,0,0.9106850000098348,None,,,,,,,,0,0,0,0,0,2,2,3,,,,,8.941281799983699,,,,,,,,,,,,,,,,,,,8.925953199970536,8.941281799983699,9.42467779997969,9.439817400008906,9.447130399988964,10.361230999988038,left,0,0.9106850000098348,None,10.36146290000761,10.37835690000793,11.874526800005697,11.874607699981425,11.890800499997567,12.375278599967714,,,9.447130399988964,,,,,,,,,,,,,,,,,,,,,,,,,,,,808749,001,2026-04-19_21h42.41.521,midterm_project,,2026.1.1,60.07727139435495,2026-04-19 21h42.41.766365 +0800,
3,3,0,4,1,feature,right,left,0,0.6675980999716558,None,,,,,,,,0,0,0,0,0,3,3,0,,,,,12.391170999966562,,,,,,,,,,,,,,,,,,,12.376207299996167,12.391170999966562,12.874833600013517,12.892698300012853,12.900922900007572,13.575387599994428,left,0,0.6675980999716558,None,13.575536399963312,13.59574859996792,15.09044719999656,15.090560399985407,15.107109199976549,15.58994839998195,,,,,,,,,,,,,,,,,,,,,,,,,,,,,,,808749,001,2026-04-19_21h42.41.521,midterm_project,,2026.1.1,60.07727139435495,2026-04-19 21h42.41.766365 +0800,
4,4,0,24,1,feature,right,left,0,1.0094505000161007,None,,,,,,,,0,0,0,0,0,4,4,1,,,,,15.606450599967502,,,,,,,,,,,,,,,,,,,15.590204500011168,15.606450599967502,16.090590899984818,16.140608499990776,16.158885399985593,17.177092999976594,left,0,1.0094505000161007,None,17.177194999996573,17.191476000007242,18.690540399984457,18.690625299990643,18.706694199994672,19.1906055000145,,,,,,,,,,,,,,,,,,,,,,,,,,,,,,,808749,001,2026-04-19_21h42.41.521,midterm_project,,2026.1.1,60.07727139435495,2026-04-19 21h42.41.766365 +0800,
5,5,0,12,0,conjunction,left,left,1,1.2467834000126459,None,,,,,,,,0,0,0,0,0,5,5,5,,,,,19.206695100001525,,,,,,,,,,,,,,,,,,,19.191182399983518,19.206695100001525,19.69043449999299,19.74729699996533,19.759275599964894,21.00864819996059,left,1,1.2467834000126459,None,21.008755299961194,21.02460299996892,22.52323210000759,22.523363000014797,22.53917740000179,23.023582499998156,,,,,,,,,,,,,,,,,,,,,,,,,,,,,,,808749,001,2026-04-19_21h42.41.521,midterm_project,,2026.1.1,60.07727139435495,2026-04-19 21h42.41.766365 +0800,
0,0,0,,,,,,,,,,,,,,,,0,0,0,0,,,,,,,,,,,,,,,,,,,,,,,,,,,,,,,,,,,,,,,,,,,,,,,23.03754970000591,23.06346829998074,25.023181599972304,,,,,,,,,,,,,,,,,,,,,,,,,808749,001,2026-04-19_21h42.41.521,midterm_project,,2026.1.1,60.07727139435495,2026-04-19 21h42.41.766365 +0800,
0,0,0,12,0,conjunction,left,right,0,1.3302419999963604,None,,,,,,,,1,0,1,0,0,0,0,5,,,,,25.048468599969056,,,,,,,,,,,,,,,,,25.023752700013574,25.02380839997204,25.04425400000764,25.048468599969056,25.540399199991953,25.592110199970193,25.60331589996349,26.94580559997121,right,0,1.3302419999963604,None,26.94599490001565,26.962198499997612,28.455561999988277,28.45564249996096,28.47196419996908,28.95535900001414,,,,,,,,,,,,,,,,,,,,,,,,,,,,,,,808749,001,2026-04-19_21h42.41.521,midterm_project,,2026.1.1,60.07727139435495,2026-04-19 21h42.41.766365 +0800,
1,1,0,24,1,feature,right,right,1,1.025673399970401,None,,,,,,,,1,0,1,0,0,1,1,1,,,,,28.97168169997167,,,,,,,,,,,,,,,,,,,28.955749799963087,28.97168169997167,29.455366000009235,29.51247269997839,29.5308248999645,30.560089999984484,right,1,1.025673399970401,None,30.560218299971893,30.576153700007126,32.07204769999953,32.072166999976616,32.088297299982514,32.5717103999923,,,,,,,,,,,,,,,,,,,,,,,,,,,,,,,808749,001,2026-04-19_21h42.41.521,midterm_project,,2026.1.1,60.07727139435495,2026-04-19 21h42.41.766365 +0800,
2,2,0,4,1,conjunction,right,right,1,0.8494176000240259,None,,,,,,,,1,0,1,0,0,2,2,3,,,,,32.588487799977884,,,,,,,,,,,,,,,,,,,32.57217210001545,32.588487799977884,33.072139099997,33.098322900012136,33.10732879996067,33.973650600004476,right,1,0.8494176000240259,None,33.97385909996228,33.99099739996018,35.48811460001161,35.488201699976344,35.50440360000357,35.98846159997629,,,,,,,,,,,,,,,,,,,,,,,,,,,,,,,808749,001,2026-04-19_21h42.41.521,midterm_project,,2026.1.1,60.07727139435495,2026-04-19 21h42.41.766365 +0800,
3,3,0,24,1,conjunction,right,right,1,1.1511176999774761,None,,,,,,,,1,0,1,0,0,3,3,4,,,,,36.004747200000565,,,,,,,,,,,,,,,,,,,35.98905609996291,36.004747200000565,36.48845850001089,36.562562500010245,36.579966599994805,37.74096049997024,right,1,1.1511176999774761,None,37.74106829997618,37.75362839997979,39.23865650000516,39.23874589998741,39.253608600003645,39.738426199997775,39.253608600003645,39.754065299988724,,,,,,,,,,,,,,,,,,,,,,,,,,,,,808749,001,2026-04-19_21h42.41.521,midterm_project,,2026.1.1,60.07727139435495,2026-04-19 21h42.41.766365 +0800,
4,4,0,4,1,feature,right,right,1,0.6986705999588594,None,,,,,,,,1,0,1,0,0,4,4,0,,,,,39.754065299988724,,,,,,,,,,,,,,,,,,,39.73929029999999,39.754065299988724,40.236694299965166,40.24920889997156,40.25756810000166,40.971495800011326,right,1,0.6986705999588594,None,40.97161199996481,40.986565199971665,42.47039480000967,42.47044070000993,42.48642029997427,42.97074680001242,42.48642029997427,42.98688869999023,40.25756810000166,,,,,,,,,,,,,,,,,,,,,,,,,,,,808749,001,2026-04-19_21h42.41.521,midterm_project,,2026.1.1,60.07727139435495,2026-04-19 21h42.41.766365 +0800,
5,5,0,12,0,feature,left,left,1,1.3508039999869652,None,,,,,,,,1,0,1,0,0,5,5,2,,,,,42.98688869999023,,,,,,,,,,,,,,,,,,,42.971301099983975,42.98688869999023,43.47106089995941,43.506847199983895,43.52032909996342,44.875466500001494,left,1,1.3508039999869652,None,44.87566059996607,44.89122910000151,46.38730589998886,46.38743090000935,46.40313160000369,46.886989999969956,,,43.52032909996342,,,,,,,,,,,,,,,,,,,,,,,,,,,,808749,001,2026-04-19_21h42.41.521,midterm_project,,2026.1.1,60.07727139435495,2026-04-19 21h42.41.766365 +0800,
1,0,1,,,,,,,,,,,,,,,,1,0,1,0,,,,,,,,,,,,,,,,,,,,,,,,,,,,,,,,,,,,,,,,,,,,,,,46.904041500005405,46.933031799970195,48.88702199998079,,,,,,,,,,,,,,,,,,,,,,,,,808749,001,2026-04-19_21h42.41.521,midterm_project,,2026.1.1,60.07727139435495,2026-04-19 21h42.41.766365 +0800,
,,,,,,,,,,,,,,,,,,,,,,,,,,,,,,,,,,,,,,,,,,,,,,,,,,,,,,,,,,,,,,,,,,,,,,,48.88743170001544,48.910545699996874,48.910545699996874,50.53775449999375,space,1.6096303000231273,None,,,,,,,,,,,,,,,,,,808749,001,2026-04-19_21h42.41.521,midterm_project,,2026.1.1,60.07727139435495,2026-04-19 21h42.41.766365 +0800,
0,0,0,12,0,feature,left,,,,,left,1,0.6086582000134513,None,None,,,,,,,,,,,0,0,0,16,50.60219499998493,,,,,,,,,,,,,,,,,,,50.560828499961644,50.60219499998493,51.05247299995972,,,,,,,,,,,51.72208119998686,51.7354129999876,52.21978449996095,,52.23566690000007,,,,,,,,,,,,51.08601119997911,51.09829130000435,51.72194399998989,left,1,0.6086582000134513,None,52.21988639998017,52.21998569997959,None,,,,,,,,808749,001,2026-04-19_21h42.41.521,midterm_project,,2026.1.1,60.07727139435495,2026-04-19 21h42.41.766365 +0800,
1,1,0,12,1,feature,right,,,,,right,1,0.46716549998382106,None,None,,,,,,,,,,,0,1,1,1,52.23566690000007,,,,,,,,,,,,,,,,,,,52.220578200009186,52.23566690000007,52.71939509996446,,,,,,,,,,,53.2541941999807,53.26810079999268,53.75236250000307,,53.768755199969746,52.777531899977475,,,,,,,,,,,52.76428489998216,52.777531899977475,53.25407839997206,right,1,0.46716549998382106,None,53.75245500000892,53.752535499981605,None,,,,,,,,808749,001,2026-04-19_21h42.41.521,midterm_project,,2026.1.1,60.07727139435495,2026-04-19 21h42.41.766365 +0800,
2,2,0,24,0,feature,left,,,,,left,1,0.4718657999765128,None,None,,,,,,,,,,,0,2,2,5,53.768755199969746,,,,,,,,,,,,,,,,,,,53.7530209000106,53.768755199969746,54.25197819998721,,,,,,,,,,,54.80735939997248,54.81834559998242,55.30223989998922,,55.317882300005294,54.32288310001604,,,,,,,,,,,54.30395759997191,54.32288310001604,54.807218400004786,left,1,0.4718657999765128,None,55.30227519996697,55.30229719995987,None,,,,,,,,808749,001,2026-04-19_21h42.41.521,midterm_project,,2026.1.1,60.07727139435495,2026-04-19 21h42.41.766365 +0800,
3,3,0,24,0,conjunction,left,,,,,left,1,0.7679357000160962,None,None,,,,,,,,,,,0,3,3,11,55.317882300005294,,,,,,,,,,,,,,,,,,,55.30243509996217,55.317882300005294,55.801846999966074,,,,,,,,,,,56.657863200001884,56.66812360001495,57.15234289999353,,57.16847689996939,55.888863799977116,,,,,,,,,,,55.87195989995962,55.888863799977116,56.65771960001439,left,1,0.7679357000160962,None,57.15244849998271,57.15253979997942,None,,,,,,,,808749,001,2026-04-19_21h42.41.521,midterm_project,,2026.1.1,60.07727139435495,2026-04-19 21h42.41.766365 +0800,
4,4,0,4,0,feature,left,,,,,left,1,0.7531262999982573,None,None,,,,,,,,,,,0,4,4,27,57.16847689996939,,,,,,,,,,,,,,,,,,,57.15308660001028,57.16847689996939,57.65250269998796,,,,,,,,,,,58.43849799997406,58.451217799971346,58.93501319998177,,58.951413100003265,57.67926710000029,,,,,,,,,,,57.67122779996134,57.67926710000029,58.43821759999264,left,1,0.7531262999982573,None,58.93511600000784,58.935236799996346,None,,,,,,,,808749,001,2026-04-19_21h42.41.521,midterm_project,,2026.1.1,60.07727139435495,2026-04-19 21h42.41.766365 +0800,
5,5,0,4,1,feature,right,,,,,right,1,1.0371396000264212,None,None,,,,,,,,,,,0,5,5,0,58.951413100003265,,,,,,,,,,,,,,,,,,,58.935759699961636,58.951413100003265,59.43555120000383,,,,,,,,,,,60.51927439996507,60.534430200001225,61.018176099983975,,61.03410489996895,59.46942899998976,,,,,,,,,,,59.4584575999761,59.46942899998976,60.51912989997072,right,1,1.0371396000264212,None,61.01828989997739,61.01836419996107,None,,,,,,,,808749,001,2026-04-19_21h42.41.521,midterm_project,,2026.1.1,60.07727139435495,2026-04-19 21h42.41.766365 +0800,
6,6,0,24,1,feature,right,,,,,right,1,0.7597919999971054,None,None,,,,,,,,,,,0,6,6,14,61.03410489996895,,,,,,,,,,,,,,,,,,,61.018795799987856,61.03410489996895,61.51835759996902,,,,,,,,,,,62.370983099972364,62.38396750000538,62.868495400005486,,62.88442690001102,61.59681909997016,,,,,,,,,,,61.576755599991884,61.59681909997016,62.370893399987835,right,1,0.7597919999971054,None,62.86860619997606,62.86869979999028,None,,,,,,,,808749,001,2026-04-19_21h42.41.521,midterm_project,,2026.1.1,60.07727139435495,2026-04-19 21h42.41.766365 +0800,
7,7,0,4,0,conjunction,left,,,,,left,1,0.5905652000219561,None,None,,,,,,,,,,,0,7,7,9,62.88442690001102,,,,,,,,,,,,,,,,,,,62.86936249997234,62.88442690001102,63.368310799996834,,,,,,,,,,,64.0017807999975,64.0169625999988,64.501743300003,,64.51762239995878,63.40336050000042,,,,,,,,,,,63.39508789998945,63.40336050000042,64.00166429998353,left,1,0.5905652000219561,None,64.50186570000369,64.50196039996808,None,,,,,,,,808749,001,2026-04-19_21h42.41.521,midterm_project,,2026.1.1,60.07727139435495,2026-04-19 21h42.41.766365 +0800,
8,8,0,24,1,conjunction,right,,,,,right,1,0.6498116999864578,None,None,,,,,,,,,,,0,8,8,32,64.51762239995878,,,,,,,,,,,,,,,,,,,64.50341989996377,64.51762239995878,65.00157500000205,,,,,,,,,,,65.75425080000423,65.76716709998436,66.25057999999262,,66.26722219999647,65.09467429999495,,,,,,,,,,,65.07518109999364,65.09467429999495,65.75415009999415,right,1,0.6498116999864578,None,66.25065110001015,66.2507120000082,None,,,,,,,,808749,001,2026-04-19_21h42.41.521,midterm_project,,2026.1.1,60.07727139435495,2026-04-19 21h42.41.766365 +0800,
9,9,0,4,1,feature,right,,,,,right,1,0.6684097000397742,None,None,,,,,,,,,,,0,9,9,12,66.26722219999647,,,,,,,,,,,,,,,,,,,66.25108179997187,66.26722219999647,66.7512974999845,,,,,,,,,,,67.45245270000305,67.46699779998744,67.95022220001556,,67.96662179997656,,,,,,,,,,,,66.76857149996795,66.7769421999692,67.4522707000142,right,1,0.6684097000397742,None,67.9502864999813,67.9503410999896,None,,,,,,,,808749,001,2026-04-19_21h42.41.521,midterm_project,,2026.1.1,60.07727139435495,2026-04-19 21h42.41.766365 +0800,
10,10,0,4,1,conjunction,right,,,,,right,1,0.612459999974817,None,space,1.9091984999831766,None,,,,,,,,,0,10,10,30,67.96662179997656,,,,,,,,,,,,,,,,,,,67.95067779999226,67.96662179997656,68.449975800002,,,,,,,,,,,69.08595839998452,69.09991779999109,69.5842241999926,,69.60012409999035,68.46985379996477,,,,,,,,,,,68.46281070000259,68.46985379996477,69.08579669997562,right,1,0.612459999974817,None,69.58433009998407,71.5169018000015,space,69.60012409999035,69.60012409999035,1.9091984999831766,None,,,,808749,001,2026-04-19_21h42.41.521,midterm_project,,2026.1.1,60.07727139435495,2026-04-19 21h42.41.766365 +0800,
11,11,0,12,1,conjunction,right,,,,,right,1,0.5416387000004761,None,None,,,,,,,,,,,0,11,11,31,71.532774399966,,,,,,,,,,,,,,,,,,,71.51728779997211,71.532774399966,72.01716930000111,,,,,,,,,,,72.6349513999885,72.64943340001628,73.13351149996743,,73.1495282999822,72.07755929999985,,,,,,,,,,,72.0662046999787,72.07755929999985,72.63484499999322,right,1,0.5416387000004761,None,73.13360999996075,73.13369340001373,None,,,,,,,,808749,001,2026-04-19_21h42.41.521,midterm_project,,2026.1.1,60.07727139435495,2026-04-19 21h42.41.766365 +0800,
12,12,0,12,0,feature,left,,,,,left,1,0.8465747999725863,None,None,,,,,,,,,,,0,12,12,28,73.1495282999822,,,,,,,,,,,,,,,,,,,73.13417889998527,73.1495282999822,73.63344619999407,,,,,,,,,,,74.53950419998728,74.54929830000037,75.03326250001555,,75.04966759996023,73.68594539997866,,,,,,,,,,,73.67281720001483,73.68594539997866,74.53926849999698,left,1,0.8465747999725863,None,75.03337139997166,75.03346419997979,None,,,,,,,,808749,001,2026-04-19_21h42.41.521,midterm_project,,2026.1.1,60.07727139435495,2026-04-19 21h42.41.766365 +0800,
13,13,0,24,1,feature,right,,,,,right,1,0.5249266999890096,None,None,,,,,,,,,,,0,13,13,26,75.04966759996023,,,,,,,,,,,,,,,,,,,75.03401389997452,75.04966759996023,75.53309199999785,,,,,,,,,,,76.13612270000158,76.14870819996577,76.63363090000348,,76.64899509999668,75.60656009998638,,,,,,,,,,,75.58882619999349,75.60656009998638,76.13602480001282,right,1,0.5249266999890096,None,76.63379509997321,76.63395960000344,None,,,,,,,,808749,001,2026-04-19_21h42.41.521,midterm_project,,2026.1.1,60.07727139435495,2026-04-19 21h42.41.766365 +0800,
14,14,0,12,1,conjunction,right,,,,,right,1,0.7926527000381611,None,None,,,,,,,,,,,0,14,14,7,76.64899509999668,,,,,,,,,,,,,,,,,,,76.63491189997876,76.64899509999668,77.13305120001314,,,,,,,,,,,77.98379809997277,77.99824290000834,78.48171849997016,,78.49802529998124,77.18866159999743,,,,,,,,,,,77.17751649999991,77.18866159999743,77.98371399997268,right,1,0.7926527000381611,None,78.48176639998564,78.481804799987,None,,,,,,,,808749,001,2026-04-19_21h42.41.521,midterm_project,,2026.1.1,60.07727139435495,2026-04-19 21h42.41.766365 +0800,
15,15,0,24,0,conjunction,left,,,,,left,1,0.776732099999208,None,None,,,,,,,,,,,0,15,15,35,78.49802529998124,,,,,,,,,,,,,,,,,,,78.48206209996715,78.49802529998124,78.98238439997658,,,,,,,,,,,79.87290809996193,79.8816168999765,80.36480119999032,,80.38127319997875,,,,,,,,,,,,79.07186999998521,79.09260079998057,79.87276319996454,left,1,0.776732099999208,None,80.36483909998788,80.36486719996901,None,,,,,,,,808749,001,2026-04-19_21h42.41.521,midterm_project,,2026.1.1,60.07727139435495,2026-04-19 21h42.41.766365 +0800,
16,16,0,4,1,conjunction,right,,,,,right,1,0.5561755999806337,None,None,,,,,,,,,,,0,16,16,6,80.38127319997875,,,,,,,,,,,,,,,,,,,80.3650498999632,80.38127319997875,80.86562190001132,,,,,,,,,,,81.46831600001315,81.48186900001019,81.9663070999668,,81.98183289996814,,,,,,,,,,,,80.8929511999595,80.90142750000814,81.46808239998063,right,1,0.5561755999806337,None,81.96643099997891,81.96653609996429,None,,,,,,,,808749,001,2026-04-19_21h42.41.521,midterm_project,,2026.1.1,60.07727139435495,2026-04-19 21h42.41.766365 +0800,
17,17,0,4,0,feature,left,,,,,left,1,0.5497647000011057,None,None,,,,,,,,,,,0,17,17,15,81.98183289996814,,,,,,,,,,,,,,,,,,,81.96723680000287,81.98183289996814,82.46637749997899,,,,,,,,,,,83.04876049997984,83.06449329998577,83.54897269996582,,,82.49432329996489,,,,,,,,,,,82.48513759998605,82.49432329996489,83.04866729996866,left,1,0.5497647000011057,None,83.54910850001033,83.54921639995882,None,,,,,,,,808749,001,2026-04-19_21h42.41.521,midterm_project,,2026.1.1,60.07727139435495,2026-04-19 21h42.41.766365 +0800,
18,18,0,24,0,feature,left,,,,,left,1,0.43442209996283054,None,None,,,,,,,,,,,0,18,18,29,83.56516120000742,,,,,,,,,,,,,,,,,,,83.54978900001151,83.56516120000742,84.04861689999234,,,,,,,,,,,84.56999990000622,84.58146269997815,85.06532619998325,,85.08132669999031,84.12234870000975,,,,,,,,,,,84.10357799998019,84.12234870000975,84.56986479996704,left,1,0.43442209996283054,None,85.0654315999709,85.0655226999661,None,,,,,,,,808749,001,2026-04-19_21h42.41.521,midterm_project,,2026.1.1,60.07727139435495,2026-04-19 21h42.41.766365 +0800,
19,19,0,4,0,feature,left,,,,,left,1,0.8731206000084057,None,None,,,,,,,,,,,0,19,19,3,85.08132669999031,,,,,,,,,,,,,,,,,,,85.06607569998596,85.08132669999031,85.56550450000213,,,,,,,,,,,86.48166839999612,86.4972500000149,86.98172129999148,,86.99755279999226,85.5957752999966,,,,,,,,,,,85.5864189999993,85.5957752999966,86.48157409997657,left,1,0.8731206000084057,None,86.98183030000655,86.98192300001392,None,,,,,,,,808749,001,2026-04-19_21h42.41.521,midterm_project,,2026.1.1,60.07727139435495,2026-04-19 21h42.41.766365 +0800,
20,20,0,4,1,feature,right,,,,,right,1,0.5342228999943472,None,space,1.2055038000107743,None,,,,,,,,,0,20,20,24,86.99755279999226,,,,,,,,,,,,,,,,,,,86.98247539997101,86.99755279999226,87.48204909998458,,,,,,,,,,,88.04918829997769,88.06413439998869,88.5475490000099,,88.56413630000316,87.51068129995838,,,,,,,,,,,87.50131989998044,87.51068129995838,88.04904710000847,right,1,0.5342228999943472,None,88.54760990000796,89.78125010000076,space,88.56413630000316,88.56413630000316,1.2055038000107743,None,,,,808749,001,2026-04-19_21h42.41.521,midterm_project,,2026.1.1,60.07727139435495,2026-04-19 21h42.41.766365 +0800,
21,21,0,4,1,conjunction,right,,,,,right,1,0.680609600036405,None,None,,,,,,,,,,,0,21,21,18,89.79690680000931,,,,,,,,,,,,,,,,,,,89.78166759997839,89.79690680000931,90.28055369999493,,,,,,,,,,,90.9978636999731,91.01329599996097,91.4982597999624,,91.51419249997707,90.30208850000054,,,,,,,,,,,90.29494319995865,90.30208850000054,90.99776629998814,right,1,0.680609600036405,None,91.49838720000116,91.49849839997478,None,,,,,,,,808749,001,2026-04-19_21h42.41.521,midterm_project,,2026.1.1,60.07727139435495,2026-04-19 21h42.41.766365 +0800,
22,22,0,12,1,conjunction,right,,,,,right,1,0.785445699992124,None,None,,,,,,,,,,,0,22,22,19,91.51419249997707,,,,,,,,,,,,,,,,,,,91.49919669999508,91.51419249997707,91.99789479997708,,,,,,,,,,,92.85380829998758,92.86313499999233,93.34755239996593,,93.36379149998538,92.06097310001496,,,,,,,,,,,92.04937389999395,92.06097310001496,92.85365229996387,right,1,0.785445699992124,None,93.34765810001409,93.3477494000108,None,,,,,,,,808749,001,2026-04-19_21h42.41.521,midterm_project,,2026.1.1,60.07727139435495,2026-04-19 21h42.41.766365 +0800,
23,23,0,24,1,feature,right,,,,,right,1,0.600979599985294,None,None,,,,,,,,,,,0,23,23,2,93.36379149998538,,,,,,,,,,,,,,,,,,,93.3483032999793,93.36379149998538,93.84691409999505,,,,,,,,,,,94.53344039997319,94.54706539999461,95.03070870001102,,95.04674610000802,93.91798510000808,,,,,,,,,,,93.89961279998533,93.91798510000808,94.53334699996049,right,1,0.600979599985294,None,95.03081959998235,95.03091069997754,None,,,,,,,,808749,001,2026-04-19_21h42.41.521,midterm_project,,2026.1.1,60.07727139435495,2026-04-19 21h42.41.766365 +0800,
24,24,0,12,1,feature,right,,,,,right,1,0.6369336000061594,None,None,,,,,,,,,,,0,24,24,13,95.04674610000802,,,,,,,,,,,,,,,,,,,95.03147190000163,95.04674610000802,95.53073030000087,,,,,,,,,,,96.23146149999229,96.24607029999606,96.73098769999342,,96.7469209000119,95.58204269997077,,,,,,,,,,,95.56855640001595,95.58204269997077,96.23137190000853,right,1,0.6369336000061594,None,96.73110939998878,96.73121529998025,None,,,,,,,,808749,001,2026-04-19_21h42.41.521,midterm_project,,2026.1.1,60.07727139435495,2026-04-19 21h42.41.766365 +0800,
25,25,0,24,0,feature,left,,,,,left,1,0.7159514999948442,None,None,,,,,,,,,,,0,25,25,17,96.7469209000119,,,,,,,,,,,,,,,,,,,96.73183289996814,96.7469209000119,97.23010200000135,,,,,,,,,,,98.03397769998992,98.04595479997806,98.53028850001283,,98.54613989999052,97.30461459996877,,,,,,,,,,,97.28602299996419,97.30461459996877,98.03387019998627,left,1,0.7159514999948442,None,98.53040220000548,98.53049559995998,None,,,,,,,,808749,001,2026-04-19_21h42.41.521,midterm_project,,2026.1.1,60.07727139435495,2026-04-19 21h42.41.766365 +0800,
26,26,0,24,1,conjunction,right,,,,,left,0,1.0443318999605253,None,None,,,,,,,,,,,0,26,26,20,98.54613989999052,,,,,,,,,,,,,,,,,,,98.53093780000927,98.54613989999052,99.03013329999521,,,,,,,,,,,100.1833265000023,100.19605859997682,100.68009759997949,,100.69611949997488,99.12511069996981,,,,,,,,,,,99.10506709996844,99.12511069996981,100.18322830001125,left,0,1.0443318999605253,None,100.6802020999603,100.68029250000836,None,,,,,,,,808749,001,2026-04-19_21h42.41.521,midterm_project,,2026.1.1,60.07727139435495,2026-04-19 21h42.41.766365 +0800,
27,27,0,4,0,conjunction,left,,,,,left,1,0.6644489000318572,None,None,,,,,,,,,,,0,27,27,21,100.69611949997488,,,,,,,,,,,,,,,,,,,100.68084069999168,100.69611949997488,101.18034510000143,,,,,,,,,,,101.89760119997663,101.91212069999892,102.39649139996618,,102.41246869997121,101.21868310001446,,,,,,,,,,,101.21103149995906,101.21868310001446,101.89744699996663,left,1,0.6644489000318572,None,102.3965950999991,102.39668810000876,None,,,,,,,,808749,001,2026-04-19_21h42.41.521,midterm_project,,2026.1.1,60.07727139435495,2026-04-19 21h42.41.766365 +0800,
28,28,0,12,0,conjunction,left,,,,,left,1,0.6588111000019126,None,None,,,,,,,,,,,0,28,28,34,102.41246869997121,,,,,,,,,,,,,,,,,,,102.39724159997422,102.41246869997121,102.89681659999769,,,,,,,,,,,103.63214959995821,103.64543490001233,104.12856799998553,,104.14533159998246,102.96076039999025,,,,,,,,,,,102.9490286000073,102.96076039999025,103.63201810000464,left,1,0.6588111000019126,None,104.1286200999748,104.12866260000737,None,,,,,,,,808749,001,2026-04-19_21h42.41.521,midterm_project,,2026.1.1,60.07727139435495,2026-04-19 21h42.41.766365 +0800,
29,29,0,24,1,conjunction,right,,,,,right,1,0.8342023000004701,None,None,,,,,,,,,,,0,29,29,8,104.14533159998246,,,,,,,,,,,,,,,,,,,104.12892779998947,104.14533159998246,104.62936149997404,,,,,,,,,,,105.5671523999772,105.57867499999702,106.06253379996633,,106.07848590001231,,,,,,,,,,,,104.70401200000197,104.72317899996415,105.56701940001221,right,1,0.8342023000004701,None,106.06264029996237,106.06272919999901,None,,,,,,,,808749,001,2026-04-19_21h42.41.521,midterm_project,,2026.1.1,60.07727139435495,2026-04-19 21h42.41.766365 +0800,
30,30,0,12,0,feature,left,,,,,left,1,0.6748156000394374,None,space,1.0840644999989308,None,,,,,,,,,0,30,30,4,106.07848590001231,,,,,,,,,,,,,,,,,,,106.06331259995932,106.07848590001231,106.56255339999916,,,,,,,,,,,107.29709609999554,107.31140289996983,107.7956180999754,,107.81142759998329,106.61938029999146,,,,,,,,,,,106.60533900000155,106.61938029999146,107.2970014999737,left,1,0.6748156000394374,None,107.79572140000528,108.91180369997164,space,107.81142759998329,107.81142759998329,1.0840644999989308,None,,,,808749,001,2026-04-19_21h42.41.521,midterm_project,,2026.1.1,60.07727139435495,2026-04-19 21h42.41.766365 +0800,
31,31,0,12,0,conjunction,left,,,,,left,1,0.6588501000078395,None,None,,,,,,,,,,,0,31,31,10,108.97800020000432,,,,,,,,,,,,,,,,,,,108.91215809999267,108.97800020000432,109.42754379997496,,,,,,,,,,,110.14784539997345,110.16102910001064,110.6455280999653,,110.661311200005,,,,,,,,,,,,109.46192099998007,109.47287259995937,110.14771290001227,left,1,0.6588501000078395,None,110.64564030000474,110.64573369995924,None,,,,,,,,808749,001,2026-04-19_21h42.41.521,midterm_project,,2026.1.1,60.07727139435495,2026-04-19 21h42.41.766365 +0800,
32,32,0,12,0,conjunction,left,,,,,left,1,0.5678795999847353,None,None,,,,,,,,,,,0,32,32,22,110.661311200005,,,,,,,,,,,,,,,,,,,110.6462892999989,110.661311200005,111.14632820000406,,,,,,,,,,,111.7963921999908,111.81060359999537,112.29502600000706,,112.31148879998364,111.21413480001502,,,,,,,,,,,111.2027870999882,111.21413480001502,111.79625179996947,left,1,0.5678795999847353,None,112.2951285999734,112.29521999997087,None,,,,,,,,808749,001,2026-04-19_21h42.41.521,midterm_project,,2026.1.1,60.07727139435495,2026-04-19 21h42.41.766365 +0800,
33,33,0,4,0,conjunction,left,,,,,left,1,0.5812962999916635,None,None,,,,,,,,,,,0,33,33,33,112.31148879998364,,,,,,,,,,,,,,,,,,,112.29580039996654,112.31148879998364,112.79495030001272,,,,,,,,,,,113.41422430000966,113.42758389998926,113.91103740001563,,113.92742969997926,112.82819380000001,,,,,,,,,,,112.82048689998919,112.82819380000001,113.4139923999901,left,1,0.5812962999916635,None,113.9111111999955,113.9111719999928,None,,,,,,,,808749,001,2026-04-19_21h42.41.521,midterm_project,,2026.1.1,60.07727139435495,2026-04-19 21h42.41.766365 +0800,
34,34,0,12,1,feature,right,,,,,left,0,0.6101766999927349,None,None,,,,,,,,,,,0,34,34,25,113.92742969997926,,,,,,,,,,,,,,,,,,,113.91154709999682,113.92742969997926,114.41151060000993,,,,,,,,,,,115.08207020000555,115.09353999997256,115.57815099996515,,115.59437830001116,,,,,,,,,,,,114.44737339997664,114.46014559996547,115.08193029998802,left,0,0.6101766999927349,None,115.57825949997641,115.57835209998302,None,,,,,,,,808749,001,2026-04-19_21h42.41.521,midterm_project,,2026.1.1,60.07727139435495,2026-04-19 21h42.41.766365 +0800,
35,35,0,24,0,conjunction,left,,,,,left,1,0.993484900041949,None,None,,,,,,,,,,,0,35,35,23,115.59437830001116,,,,,,,,,,,,,,,,,,,115.5789029999869,115.59437830001116,116.09347139997408,,,,,,,,,,,117.182940699975,117.1935541999992,117.67789429996628,,117.70947609998984,,,,,,,,,,,,116.15825189999305,116.17747569998028,117.18282549997093,left,1,0.993484900041949,None,117.67800339998212,117.67809559998568,None,,,,,,,,808749,001,2026-04-19_21h42.41.521,midterm_project,,2026.1.1,60.07727139435495,2026-04-19 21h42.41.766365 +0800,
,,,,,,,,,,,,,,,,,,,,,,,,,,,,,,,,,,,,,,,,,,,,,,,,,,,,,,,,,,,,,,,,,,,,,,,,,,,,,,,,,,,,,,,,,,,,117.67844310001237,117.70947609998984,120.69341929996153,808749,001,2026-04-19_21h42.41.521,midterm_project,,2026.1.1,60.07727139435495,2026-04-19 21h42.41.766365 +0800,
