set_size,target_present,condition_type,corr_resp,thisN,thisTrialN,thisRepN,key_resp.keys,key_resp.corr,key_resp.rt,key_resp.duration,practice_loop.thisRepN,practice_loop.thisTrialN,practice_loop.thisN,practice_loop.thisIndex,formal_loop.thisRepN,formal_loop.thisTrialN,formal_loop.thisN,formal_loop.thisIndex,thisRow.t,notes,piloting,start.started,open_text.started,start_key.started,start.stopped,start_key.keys,start_key.rt,start_key.duration,instr_practice.started,prac_text.started,prac_key.started,instr_practice.stopped,prac_key.keys,prac_key.rt,prac_key.duration,fixation.started,fix_text.started,fixation.stopped,trial.started,key_resp.started,trial.stopped,practice_loop.key_resp.keys,practice_loop.key_resp.corr,feedback.started,fb_text.started,feedback.stopped,practice_loop.key_resp.rt,practice_loop.key_resp.duration,instr_formal.started,formal_text.started,formal_key.started,instr_formal.stopped,formal_key.keys,formal_key.rt,formal_key.duration,formal_loop.key_resp.keys,formal_loop.key_resp.corr,formal_loop.key_resp.rt,formal_loop.key_resp.duration,fix_text.stopped,participant,session,date,expName,expVersion,psychopyVersion,frameRate,expStart,
,,,,,,,,,,,,,,,,,,,,,True,0.019955999974627048,0.0341482000076212,0.0341482000076212,2.291959499998484,space,2.2220912000047974,None,,,,,,,,,,,,,,,,,,,,,,,,,,,,,,,,,pilot,001,2026-04-15_11h26.17.108,midterm_project,,2026.1.1,60.26038511445444,2026-04-15 11h26.17.381845 +0800,
,,,,,,,,,,,,,,,,,,,,,,,,,,,,,2.2920172999729402,2.3004406999680214,2.3004406999680214,2.671296199958306,space,0.3682149000233039,None,,,,,,,,,,,,,,,,,,,,,,,,,,pilot,001,2026-04-15_11h26.17.108,midterm_project,,2026.1.1,60.26038511445444,2026-04-15 11h26.17.381845 +0800,
4,1,conjunction,right,0,0,0,None,0,,,0,0,0,3,,,,,2.70050999999512,,,,,,,,,,,,,,,,,2.6906642999965698,2.70050999999512,3.1877190999803133,3.2447540999855846,3.2670483000110835,5.1727249000105076,None,0,5.172822599997744,5.199298499966972,6.687913200003095,,,,,,,,,,,,,,,pilot,001,2026-04-15_11h26.17.108,midterm_project,,2026.1.1,60.26038511445444,2026-04-15 11h26.17.381845 +0800,
12,0,feature,left,1,1,0,None,0,,,0,1,1,2,,,,,6.701098699995782,,,,,,,,,,,,,,,,,6.68813450000016,6.701098699995782,7.187571799964644,7.207309799967334,7.233000500011258,9.188168999971822,None,0,9.188245599973015,9.200284099963028,10.671843799995258,,,,,,,,,,,,,,,pilot,001,2026-04-15_11h26.17.108,midterm_project,,2026.1.1,60.26038511445444,2026-04-15 11h26.17.381845 +0800,
24,1,feature,right,2,2,0,right,1,1.1320528999785893,None,0,2,2,1,,,,,10.684768499981146,,,,,,,,,,,,,,,,,10.672056799987331,10.684768499981146,11.17213709995849,11.217886099999305,11.249559599964414,12.388903799990658,right,1,12.388978999981191,12.415467499988154,13.903227999981027,1.1320528999785893,None,,,,,,,,,,,,,pilot,001,2026-04-15_11h26.17.108,midterm_project,,2026.1.1,60.26038511445444,2026-04-15 11h26.17.381845 +0800,
4,1,feature,right,3,3,0,right,1,1.6113322000019252,None,0,3,3,0,,,,,13.91672739997739,,,,,,,,,,,,,,,,,13.903438200009987,13.91672739997739,14.406227800005581,14.418207700015046,14.432450299966149,16.053440499992575,right,1,16.053516899992246,16.081345699960366,17.55424620001577,1.6113322000019252,None,,,,,,,,,,,,,pilot,001,2026-04-15_11h26.17.108,midterm_project,,2026.1.1,60.26038511445444,2026-04-15 11h26.17.381845 +0800,
24,1,conjunction,right,4,4,0,right,1,1.5788419999880716,None,0,4,4,4,,,,,17.566207199997734,,,,,,,,,,,,,,,,,17.554490100010298,17.566207199997734,18.054481700004544,18.12995689996751,18.165270199999213,19.753689799981657,right,1,19.753752999997232,19.78126889996929,21.268593599961605,1.5788419999880716,None,,,,,,,,,,,,,pilot,001,2026-04-15_11h26.17.108,midterm_project,,2026.1.1,60.26038511445444,2026-04-15 11h26.17.381845 +0800,
12,0,conjunction,left,5,5,0,left,1,1.242286900000181,None,0,5,5,5,,,,,21.282194699975662,,,,,,,,,,,,,,,,,21.268757799989544,21.282194699975662,21.769174899964128,21.802515899995342,21.81460410001455,23.06960970000364,left,1,23.06968479999341,23.09709399996791,24.586526500002947,1.242286900000181,None,,,,,,,,,,,,,pilot,001,2026-04-15_11h26.17.108,midterm_project,,2026.1.1,60.26038511445444,2026-04-15 11h26.17.381845 +0800,
,,,,,,,,,,,,,,,,,,,,,,,,,,,,,,,,,,,,,,,,,,,,,,,,,24.58665499999188,24.59929220000049,24.59929220000049,37.2496902999701,space,12.644255399995018,None,,,,,,pilot,001,2026-04-15_11h26.17.108,midterm_project,,2026.1.1,60.26038511445444,2026-04-15 11h26.17.381845 +0800,
4,0,feature,left,0,0,0,left,1,0.7787935999804176,None,,,,,0,0,0,27,37.34540419996483,,,,,,,,,,,,,,,,,37.33823689998826,37.34540419996483,37.751092299993616,37.76032820000546,37.779224600002635,38.58541120000882,,,,,,,,,,,,,,,left,1,0.7787935999804176,None,,pilot,001,2026-04-15_11h26.17.108,midterm_project,,2026.1.1,60.26038511445444,2026-04-15 11h26.17.381845 +0800,
4,1,conjunction,right,1,1,0,right,1,1.269866999995429,None,,,,,0,1,1,6,38.59678399999393,,,,,,,,,,,,,,,,,38.58566459995927,38.59678399999393,39.08384340000339,39.0960761999595,39.1122553999885,40.38477810000768,,,,,,,,,,,,,,,right,1,1.269866999995429,None,39.1122553999885,pilot,001,2026-04-15_11h26.17.108,midterm_project,,2026.1.1,60.26038511445444,2026-04-15 11h26.17.381845 +0800,
24,1,conjunction,right,2,2,0,right,1,1.1549612999660894,None,,,,,0,2,2,8,40.396620300016366,,,,,,,,,,,,,,,,,40.38501129997894,40.396620300016366,40.88607599999523,40.95423789997585,40.979126999969594,42.14045139995869,,,,,,,,,,,,,,,right,1,1.1549612999660894,None,,pilot,001,2026-04-15_11h26.17.108,midterm_project,,2026.1.1,60.26038511445444,2026-04-15 11h26.17.381845 +0800,
24,1,feature,right,3,3,0,right,1,1.2870277000474744,None,,,,,0,3,3,2,42.14592949999496,,,,,,,,,,,,,,,,,42.14060929999687,42.14592949999496,42.63212650001515,42.669132100010756,42.69507909996901,43.984992299985606,,,,,,,,,,,,,,,right,1,1.2870277000474744,None,42.69507909996901,pilot,001,2026-04-15_11h26.17.108,midterm_project,,2026.1.1,60.26038511445444,2026-04-15 11h26.17.381845 +0800,
24,0,feature,left,4,4,0,left,1,0.8625462999916635,None,,,,,0,4,4,29,43.99580380000407,,,,,,,,,,,,,,,,,43.98518580000382,43.99580380000407,44.48188829998253,44.52000219997717,44.54466630000388,45.41908590000821,,,,,,,,,,,,,,,left,1,0.8625462999916635,None,44.54466630000388,pilot,001,2026-04-15_11h26.17.108,midterm_project,,2026.1.1,60.26038511445444,2026-04-15 11h26.17.381845 +0800,
24,0,conjunction,left,5,5,0,None,0,,,,,,,0,5,5,11,45.42892480001319,,,,,,,,,,,,,,,,,45.41928919998463,45.42892480001319,45.916824299958535,45.984001700009685,46.01192620000802,47.93110429996159,,,,,,,,,,,,,,,None,0,,,46.01192620000802,pilot,001,2026-04-15_11h26.17.108,midterm_project,,2026.1.1,60.26038511445444,2026-04-15 11h26.17.381845 +0800,
12,1,feature,right,6,6,0,left,0,1.1922640000120737,None,,,,,0,6,6,25,47.94540719996439,,,,,,,,,,,,,,,,,47.93126390001271,47.94540719996439,48.434265399992,48.45951959997183,48.478020999988075,49.68254569999408,,,,,,,,,,,,,,,left,0,1.1922640000120737,None,,pilot,001,2026-04-15_11h26.17.108,midterm_project,,2026.1.1,60.26038511445444,2026-04-15 11h26.17.381845 +0800,
24,0,feature,left,7,7,0,left,1,1.2007758999825455,None,,,,,0,7,7,5,49.695344700012356,,,,,,,,,,,,,,,,,49.682742699980736,49.695344700012356,50.18152869999176,50.21691789996112,50.24420519999694,51.45082359999651,,,,,,,,,,,,,,,left,1,1.2007758999825455,None,50.24420519999694,pilot,001,2026-04-15_11h26.17.108,midterm_project,,2026.1.1,60.26038511445444,2026-04-15 11h26.17.381845 +0800,
12,1,feature,right,8,8,0,None,0,,,,,,,0,8,8,1,51.461733100004494,,,,,,,,,,,,,,,,,51.45101329998579,51.461733100004494,51.95045140001457,51.97514950000914,51.99493419995997,53.96366509998916,,,,,,,,,,,,,,,None,0,,,51.99493419995997,pilot,001,2026-04-15_11h26.17.108,midterm_project,,2026.1.1,60.26038511445444,2026-04-15 11h26.17.381845 +0800,
12,0,conjunction,left,9,9,0,None,0,,,,,,,0,9,9,10,53.977886500011664,,,,,,,,,,,,,,,,,53.963835900009144,53.977886500011664,54.46614989999216,54.503865299979225,54.52676039998187,56.464412299974356,,,,,,,,,,,,,,,None,0,,,,pilot,001,2026-04-15_11h26.17.108,midterm_project,,2026.1.1,60.26038511445444,2026-04-15 11h26.17.381845 +0800,
12,1,conjunction,right,10,10,0,None,0,,,,,,,0,10,10,31,56.477460799971595,,,,,,,,,,,,,,,,,56.4646378000034,56.477460799971595,56.965268999978434,56.99873519997345,57.026483899971936,58.96328500000527,,,,,,,,,,,,,,,None,0,,,,pilot,001,2026-04-15_11h26.17.108,midterm_project,,2026.1.1,60.26038511445444,2026-04-15 11h26.17.381845 +0800,
12,0,feature,left,11,11,0,None,0,,,,,,,0,11,11,4,58.97701019997476,,,,,,,,,,,,,,,,,58.96344749996206,58.97701019997476,59.46451550000347,59.48839479999151,59.50971449998906,61.463279799965676,,,,,,,,,,,,,,,None,0,,,,pilot,001,2026-04-15_11h26.17.108,midterm_project,,2026.1.1,60.26038511445444,2026-04-15 11h26.17.381845 +0800,
24,1,conjunction,right,12,12,0,right,1,1.7484377000364475,None,,,,,0,12,12,20,61.477238499966916,,,,,,,,,,,,,,,,,61.463457499979995,61.477238499966916,61.9653849999886,62.03270219999831,62.059431199973915,63.81504849996418,,,,,,,,,,,,,,,right,1,1.7484377000364475,None,,pilot,001,2026-04-15_11h26.17.108,midterm_project,,2026.1.1,60.26038511445444,2026-04-15 11h26.17.381845 +0800,
12,0,feature,left,13,13,0,left,1,0.6858593999641016,None,,,,,0,13,13,28,63.82669590000296,,,,,,,,,,,,,,,,,63.815222000004724,63.82669590000296,64.31366809998872,64.33303219999652,64.35894409997854,65.04748040001141,,,,,,,,,,,,,,,left,1,0.6858593999641016,None,64.35894409997854,pilot,001,2026-04-15_11h26.17.108,midterm_project,,2026.1.1,60.26038511445444,2026-04-15 11h26.17.381845 +0800,
12,0,conjunction,left,14,14,0,right,0,1.360827700002119,None,,,,,0,14,14,22,65.05926139996154,,,,,,,,,,,,,,,,,65.04766430001473,65.05926139996154,65.55084159999387,65.59406420000596,65.60912489995826,66.98057259997586,,,,,,,,,,,,,,,right,0,1.360827700002119,None,,pilot,001,2026-04-15_11h26.17.108,midterm_project,,2026.1.1,60.26038511445444,2026-04-15 11h26.17.381845 +0800,
4,1,conjunction,right,15,15,0,left,0,0.6487383000203408,None,,,,,0,15,15,30,66.99307490000501,,,,,,,,,,,,,,,,,66.98076979996404,66.99307490000501,67.48181500000646,67.49662469996838,67.50867849995848,68.16249479999533,,,,,,,,,,,,,,,left,0,0.6487383000203408,None,,pilot,001,2026-04-15_11h26.17.108,midterm_project,,2026.1.1,60.26038511445444,2026-04-15 11h26.17.381845 +0800,
24,1,feature,right,16,16,0,right,1,1.2192801000201143,None,,,,,0,16,16,14,68.17547169997124,,,,,,,,,,,,,,,,,68.16267220000736,68.17547169997124,68.66252919996623,68.69705849996535,68.72568869998213,69.94973599998048,,,,,,,,,,,,,,,right,1,1.2192801000201143,None,68.72568869998213,pilot,001,2026-04-15_11h26.17.108,midterm_project,,2026.1.1,60.26038511445444,2026-04-15 11h26.17.381845 +0800,
12,1,conjunction,right,17,17,0,right,1,1.2164646000019275,None,,,,,0,17,17,19,69.95885559997987,,,,,,,,,,,,,,,,,69.94997549999971,69.95885559997987,70.44527869997546,70.47805189999053,70.49103659996763,71.71317890001228,,,,,,,,,,,,,,,right,1,1.2164646000019275,None,70.49103659996763,pilot,001,2026-04-15_11h26.17.108,midterm_project,,2026.1.1,60.26038511445444,2026-04-15 11h26.17.381845 +0800,
4,0,conjunction,left,18,18,0,left,1,0.6908264000085182,None,,,,,0,18,18,33,71.72609079995891,,,,,,,,,,,,,,,,,71.71337399998447,71.72609079995891,72.21332989999792,72.2267986999941,72.2415222999989,72.94877049996285,,,,,,,,,,,,,,,left,1,0.6908264000085182,None,,pilot,001,2026-04-15_11h26.17.108,midterm_project,,2026.1.1,60.26038511445444,2026-04-15 11h26.17.381845 +0800,
4,1,feature,right,19,19,0,right,1,0.8079885999904945,None,,,,,0,19,19,12,72.95892780000577,,,,,,,,,,,,,,,,,72.9490749000106,72.95892780000577,73.44572399999015,73.45354329998372,73.47505599999567,74.29682240000693,,,,,,,,,,,,,,,right,1,0.8079885999904945,None,73.47505599999567,pilot,001,2026-04-15_11h26.17.108,midterm_project,,2026.1.1,60.26038511445444,2026-04-15 11h26.17.381845 +0800,
4,1,feature,right,20,20,0,right,1,1.4076597000239417,None,,,,,0,20,20,24,74.30902889999561,,,,,,,,,,,,,,,,,74.29705449996982,74.30902889999561,74.79812950000633,74.81241999997292,74.82490399997914,76.24528709996957,,,,,,,,,,,,,,,right,1,1.4076597000239417,None,,pilot,001,2026-04-15_11h26.17.108,midterm_project,,2026.1.1,60.26038511445444,2026-04-15 11h26.17.381845 +0800,
12,0,conjunction,left,21,21,0,left,1,1.3166333000408486,None,,,,,0,21,21,34,76.25838809995912,,,,,,,,,,,,,,,,,76.24546549998922,76.25838809995912,76.7451771000051,76.77847349998774,76.79086469998583,78.11268309998559,,,,,,,,,,,,,,,left,1,1.3166333000408486,None,76.79086469998583,pilot,001,2026-04-15_11h26.17.108,midterm_project,,2026.1.1,60.26038511445444,2026-04-15 11h26.17.381845 +0800,
12,1,conjunction,right,22,22,0,right,1,0.9090652000159025,None,,,,,0,22,22,7,78.12447939999402,,,,,,,,,,,,,,,,,78.11285239999415,78.12447939999402,78.614379799983,78.65579609997803,78.67363849998219,79.5964761999785,,,,,,,,,,,,,,,right,1,0.9090652000159025,None,,pilot,001,2026-04-15_11h26.17.108,midterm_project,,2026.1.1,60.26038511445444,2026-04-15 11h26.17.381845 +0800,
24,0,conjunction,left,23,23,0,None,0,,,,,,,0,23,23,35,79.60805959999561,,,,,,,,,,,,,,,,,79.59668269997928,79.60805959999561,80.09566409996478,80.16331229999196,80.1903720999835,82.11043719999725,,,,,,,,,,,,,,,None,0,,,80.1903720999835,pilot,001,2026-04-15_11h26.17.108,midterm_project,,2026.1.1,60.26038511445444,2026-04-15 11h26.17.381845 +0800,
4,1,feature,right,24,24,0,right,1,0.905519199965056,None,,,,,0,24,24,0,82.1244136999594,,,,,,,,,,,,,,,,,82.11061550001614,82.1244136999594,82.61109329998726,82.61837959999684,82.6400236999616,83.56275009998353,,,,,,,,,,,,,,,right,1,0.905519199965056,None,,pilot,001,2026-04-15_11h26.17.108,midterm_project,,2026.1.1,60.26038511445444,2026-04-15 11h26.17.381845 +0800,
24,1,feature,right,25,25,0,left,0,0.6679110999684781,None,,,,,0,25,25,26,83.57413590000942,,,,,,,,,,,,,,,,,83.56302369997138,83.57413590000942,84.06194719998166,84.10579739999957,84.1398192999768,84.81237389997113,,,,,,,,,,,,,,,left,0,0.6679110999684781,None,84.1398192999768,pilot,001,2026-04-15_11h26.17.108,midterm_project,,2026.1.1,60.26038511445444,2026-04-15 11h26.17.381845 +0800,
4,0,feature,left,26,26,0,left,1,1.1802299999981187,None,,,,,0,26,26,3,84.82386840000981,,,,,,,,,,,,,,,,,84.81255609996151,84.82386840000981,85.31126859999495,85.31951920001302,85.33978929999284,86.52632689999882,,,,,,,,,,,,,,,left,1,1.1802299999981187,None,85.33978929999284,pilot,001,2026-04-15_11h26.17.108,midterm_project,,2026.1.1,60.26038511445444,2026-04-15 11h26.17.381845 +0800,
4,0,conjunction,left,27,27,0,left,1,0.8772224999847822,None,,,,,0,27,27,21,86.53992359997937,,,,,,,,,,,,,,,,,86.52648309996584,86.53992359997937,87.02835009997943,87.04469919996336,87.05579479999142,87.94393239996862,,,,,,,,,,,,,,,left,1,0.8772224999847822,None,,pilot,001,2026-04-15_11h26.17.108,midterm_project,,2026.1.1,60.26038511445444,2026-04-15 11h26.17.381845 +0800,
12,0,feature,left,28,28,0,left,1,1.2435951000079513,None,,,,,0,28,28,16,87.95701159996679,,,,,,,,,,,,,,,,,87.9441383999656,87.95701159996679,88.44412200001534,88.46630540001206,88.48930770001607,89.743678800005,,,,,,,,,,,,,,,left,1,1.2435951000079513,None,,pilot,001,2026-04-15_11h26.17.108,midterm_project,,2026.1.1,60.26038511445444,2026-04-15 11h26.17.381845 +0800,
24,0,feature,left,29,29,0,left,1,1.2388549000024796,None,,,,,0,29,29,17,89.75673610001104,,,,,,,,,,,,,,,,,89.74385319999419,89.75673610001104,90.24285719997715,90.27850189997116,90.30599889997393,91.56090619997121,,,,,,,,,,,,,,,left,1,1.2388549000024796,None,90.30599889997393,pilot,001,2026-04-15_11h26.17.108,midterm_project,,2026.1.1,60.26038511445444,2026-04-15 11h26.17.381845 +0800,
24,1,conjunction,right,30,30,0,right,1,0.6900277999811806,None,,,,,0,30,30,32,91.57302359997993,,,,,,,,,,,,,,,,,91.5610826999764,91.57302359997993,92.06345789995976,92.13531059998786,92.15541909995954,92.84684989997186,,,,,,,,,,,,,,,right,1,0.6900277999811806,None,,pilot,001,2026-04-15_11h26.17.108,midterm_project,,2026.1.1,60.26038511445444,2026-04-15 11h26.17.381845 +0800,
4,1,conjunction,right,31,31,0,right,1,1.4231244000256993,None,,,,,0,31,31,18,92.85640340001555,,,,,,,,,,,,,,,,,92.84706389997154,92.85640340001555,93.34292899997672,93.35296930000186,93.37200510001276,94.81084140000166,,,,,,,,,,,,,,,right,1,1.4231244000256993,None,93.37200510001276,pilot,001,2026-04-15_11h26.17.108,midterm_project,,2026.1.1,60.26038511445444,2026-04-15 11h26.17.381845 +0800,
4,0,feature,left,32,32,0,left,1,1.494698399968911,None,,,,,0,32,32,15,94.82265250000637,,,,,,,,,,,,,,,,,94.81109719997039,94.82265250000637,95.30971810000483,95.3174021000159,95.33833709999453,96.84160869999323,,,,,,,,,,,,,,,left,1,1.494698399968911,None,95.33833709999453,pilot,001,2026-04-15_11h26.17.108,midterm_project,,2026.1.1,60.26038511445444,2026-04-15 11h26.17.381845 +0800,
4,0,conjunction,left,33,33,0,left,1,1.024393700005021,None,,,,,0,33,33,9,96.85578639997402,,,,,,,,,,,,,,,,,96.8417657999671,96.85578639997402,97.34247340000002,97.35481270001037,97.3712463999982,98.4103582999669,,,,,,,,,,,,,,,left,1,1.024393700005021,None,,pilot,001,2026-04-15_11h26.17.108,midterm_project,,2026.1.1,60.26038511445444,2026-04-15 11h26.17.381845 +0800,
24,0,conjunction,left,34,34,0,left,1,1.849763999984134,None,,,,,0,34,34,23,98.42244059999939,,,,,,,,,,,,,,,,,98.41054859996075,98.42244059999939,98.91221450001467,98.98596449999604,99.02073619997827,100.87669999996433,,,,,,,,,,,,,,,left,1,1.849763999984134,None,,pilot,001,2026-04-15_11h26.17.108,midterm_project,,2026.1.1,60.26038511445444,2026-04-15 11h26.17.381845 +0800,
12,1,feature,right,35,35,0,right,1,0.7741743000224233,None,,,,,0,35,35,13,100.88846599997487,,,,,,,,,,,,,,,,,100.87685970001621,100.88846599997487,101.37699359998805,101.40302560001146,101.42084719997365,102.20868019998306,,,,,,,,,,,,,,,right,1,0.7741743000224233,None,,pilot,001,2026-04-15_11h26.17.108,midterm_project,,2026.1.1,60.26038511445444,2026-04-15 11h26.17.381845 +0800,
