set_size,target_present,condition_type,corr_resp,thisN,thisTrialN,thisRepN,key_resp.keys,key_resp.corr,key_resp.rt,key_resp.duration,practice_loop.thisRepN,practice_loop.thisTrialN,practice_loop.thisN,practice_loop.thisIndex,formal_loop.thisRepN,formal_loop.thisTrialN,formal_loop.thisN,formal_loop.thisIndex,thisRow.t,notes,piloting,start.started,open_text.started,start_key.started,start.stopped,start_key.keys,start_key.rt,start_key.duration,instr_practice.started,prac_text.started,prac_key.started,instr_practice.stopped,prac_key.keys,prac_key.rt,prac_key.duration,fixation.started,fix_text.started,fixation.stopped,trial.started,key_resp.started,trial.stopped,practice_loop.key_resp.keys,practice_loop.key_resp.corr,practice_loop.key_resp.rt,practice_loop.key_resp.duration,feedback.started,fb_text.started,feedback.stopped,ITI.started,ITI_text.started,ITI.stopped,fb_text.stopped,fix_text.stopped,ITI_text.stopped,instr_formal.started,formal_text.started,formal_key.started,instr_formal.stopped,formal_key.keys,formal_key.rt,formal_key.duration,formal_loop.key_resp.keys,formal_loop.key_resp.corr,formal_loop.key_resp.rt,formal_loop.key_resp.duration,thanks.started,thanks_text.started,thanks.stopped,participant,session,date,expName,expVersion,psychopyVersion,frameRate,expStart,
,,,,,,,,,,,,,,,,,,,,,True,0.012833299988415092,0.02704660000745207,0.02704660000745207,1.917439299984835,space,1.7755005999933928,None,,,,,,,,,,,,,,,,,,,,,,,,,,,,,,,,,,,,,,,,,pilot,001,2026-04-15_20h30.58.191,midterm_project,,2026.1.1,60.16503268756271,2026-04-15 20h30.58.807999 +0800,
,,,,,,,,,,,,,,,,,,,,,,,,,,,,,1.9174905000254512,1.9265537000028417,1.9265537000028417,3.4474338000291027,space,1.5135569000267424,None,,,,,,,,,,,,,,,,,,,,,,,,,,,,,,,,,,pilot,001,2026-04-15_20h30.58.191,midterm_project,,2026.1.1,60.16503268756271,2026-04-15 20h30.58.807999 +0800,
12,0,feature,left,0,0,0,left,1,0.9181039999821223,None,0,0,0,2,,,,,3.5429816999821924,,,,,,,,,,,,,,,,,3.524171800003387,3.5429816999821924,3.9644770000013523,3.9848602000274695,4.00994499999797,4.933230200025719,left,1,0.9181039999821223,None,4.933297200012021,4.960266400012188,6.44760379998479,6.447650599991903,6.460310299997218,6.946861399977934,,,,,,,,,,,,,,,,,,pilot,001,2026-04-15_20h30.58.191,midterm_project,,2026.1.1,60.16503268756271,2026-04-15 20h30.58.807999 +0800,
4,1,conjunction,right,1,1,0,right,1,0.9462814999860711,None,0,1,1,3,,,,,6.960258100007195,,,,,,,,,,,,,,,,,6.947087000007741,6.960258100007195,7.446581199998036,7.480822500016075,7.492818300030194,8.446605000004638,right,1,0.9462814999860711,None,8.446703699999489,8.458958500006702,9.946437300008256,9.946473399992101,9.960703400021885,10.447158800030593,9.960703400021885,,,,,,,,,,,,,,,,,pilot,001,2026-04-15_20h30.58.191,midterm_project,,2026.1.1,60.16503268756271,2026-04-15 20h30.58.807999 +0800,
24,1,feature,right,2,2,0,right,1,1.0061652000294998,None,0,2,2,1,,,,,10.459704399982002,,,,,,,,,,,,,,,,,10.44738219998544,10.459704399982002,10.945964100013953,10.986306899983902,11.008694000018295,12.031811500026379,right,1,1.0061652000294998,None,12.031904399977066,12.05775660002837,13.545983200019691,13.546022800030187,13.559250199992675,14.045987399993464,,11.008694000018295,,,,,,,,,,,,,,,,pilot,001,2026-04-15_20h30.58.191,midterm_project,,2026.1.1,60.16503268756271,2026-04-15 20h30.58.807999 +0800,
12,0,conjunction,left,3,3,0,left,1,0.8432000000029802,None,0,3,3,5,,,,,14.05901869997615,,,,,,,,,,,,,,,,,14.046149400004651,14.05901869997615,14.546144700027071,14.579566999978852,14.60841139999684,15.463519699987955,left,1,0.8432000000029802,None,15.463581799995154,15.475386300007813,16.963575700006913,16.963623200019356,16.975982600008138,17.46163690002868,16.975982600008138,,17.475502500019502,,,,,,,,,,,,,,,pilot,001,2026-04-15_20h30.58.191,midterm_project,,2026.1.1,60.16503268756271,2026-04-15 20h30.58.807999 +0800,
4,1,feature,right,4,4,0,left,0,0.589728599996306,None,0,4,4,0,,,,,17.475502500019502,,,,,,,,,,,,,,,,,17.461779100005515,17.475502500019502,17.961434400000144,17.967770399991423,17.975693300017156,18.580382100015413,left,0,0.589728599996306,None,18.580479399999604,18.60762219998287,20.0948324999772,20.094873499998357,20.108506600023247,20.59581369999796,,17.975693300017156,,,,,,,,,,,,,,,,pilot,001,2026-04-15_20h30.58.191,midterm_project,,2026.1.1,60.16503268756271,2026-04-15 20h30.58.807999 +0800,
24,1,conjunction,right,5,5,0,right,1,1.1489972000126727,None,0,5,5,4,,,,,20.60866680002073,,,,,,,,,,,,,,,,,20.595970600028522,20.60866680002073,21.096432799997274,21.16526520001935,21.191293800016865,22.346453799982555,right,1,1.1489972000126727,None,22.346516599995084,22.358266399998683,23.84673250000924,23.846786300011445,23.858722999983,24.344546200009063,23.858722999983,,24.358581500011496,,,,,,,,,,,,,,,pilot,001,2026-04-15_20h30.58.191,midterm_project,,2026.1.1,60.16503268756271,2026-04-15 20h30.58.807999 +0800,
,,,,,,,,,,,,,,,,,,,,,,,,,,,,,,,,,,,,,,,,,,,,,,,,,,,,,,,24.344644900003914,24.358581500011496,24.358581500011496,26.51110940001672,space,2.145039099967107,None,,,,,,,,pilot,001,2026-04-15_20h30.58.191,midterm_project,,2026.1.1,60.16503268756271,2026-04-15 20h30.58.807999 +0800,
12,1,feature,right,0,0,0,right,1,1.2165751000284217,None,,,,,0,0,0,13,26.557018399995286,,,,,,,,,,,,,,,,,26.550122799992096,26.557018399995286,27.011378100025468,27.104123299999628,27.12404060002882,28.34740690002218,,,,,,,,28.34749670000747,28.357535400020424,28.845007900032215,,,28.857624600001145,,,,,,,,right,1,1.2165751000284217,None,,,,pilot,001,2026-04-15_20h30.58.191,midterm_project,,2026.1.1,60.16503268756271,2026-04-15 20h30.58.807999 +0800,
12,1,conjunction,right,1,1,0,right,1,0.6135161000420339,None,,,,,0,1,1,31,28.857624600001145,,,,,,,,,,,,,,,,,28.845183600031305,28.857624600001145,29.343920500017703,29.372743599989917,29.389980699983425,30.01153570000315,,,,,,,,30.011604900006205,30.024132299993653,30.510298200009856,,29.389980699983425,30.524077699985355,,,,,,,,right,1,0.6135161000420339,None,,,,pilot,001,2026-04-15_20h30.58.191,midterm_project,,2026.1.1,60.16503268756271,2026-04-15 20h30.58.807999 +0800,
12,1,conjunction,right,2,2,0,right,1,0.6466811000136659,None,,,,,0,2,2,19,30.524077699985355,,,,,,,,,,,,,,,,,30.510595400002785,30.524077699985355,31.010678599996027,31.042392499977723,31.056578400020953,31.71069229999557,,,,,,,,31.710756700020283,31.723782300017774,32.21087369997986,,31.056578400020953,32.224012200022116,,,,,,,,right,1,0.6466811000136659,None,,,,pilot,001,2026-04-15_20h30.58.191,midterm_project,,2026.1.1,60.16503268756271,2026-04-15 20h30.58.807999 +0800,
24,1,conjunction,right,3,3,0,right,1,1.1714610999915749,None,,,,,0,3,3,32,32.224012200022116,,,,,,,,,,,,,,,,,32.211080999986734,32.224012200022116,32.71097870002268,32.77084640000248,32.8060973000247,33.981276499980595,,,,,,,,33.981346899992786,33.99024610000197,34.476710200018715,,,34.49028520000866,,,,,,,,right,1,1.1714610999915749,None,,,,pilot,001,2026-04-15_20h30.58.191,midterm_project,,2026.1.1,60.16503268756271,2026-04-15 20h30.58.807999 +0800,
24,1,feature,right,4,4,0,right,1,0.8387466000276618,None,,,,,0,4,4,2,34.49028520000866,,,,,,,,,,,,,,,,,34.47686729999259,34.49028520000866,34.976008900033776,35.01097910001408,35.03921439999249,35.87962710001739,,,,,,,,35.87970980000682,35.890310399990994,36.37597150000511,,35.03921439999249,36.38985620002495,,,,,,,,right,1,0.8387466000276618,None,,,,pilot,001,2026-04-15_20h30.58.191,midterm_project,,2026.1.1,60.16503268756271,2026-04-15 20h30.58.807999 +0800,
24,0,conjunction,left,5,5,0,left,1,1.267887800000608,None,,,,,0,5,5,35,36.38985620002495,,,,,,,,,,,,,,,,,36.37612299999455,36.38985620002495,36.87639490002766,36.9356690000277,36.972433599992655,38.245949600008316,,,,,,,,38.24602339998819,38.256304699985776,38.743357500003185,,36.972433599992655,38.756470200023614,,,,,,,,left,1,1.267887800000608,None,,,,pilot,001,2026-04-15_20h30.58.191,midterm_project,,2026.1.1,60.16503268756271,2026-04-15 20h30.58.807999 +0800,
24,1,feature,right,6,6,0,right,1,0.6726535999914631,None,,,,,0,6,6,14,38.756470200023614,,,,,,,,,,,,,,,,,38.743544000026304,38.756470200023614,39.24313349998556,39.280505200033076,39.30531610001344,39.97855930001242,,,,,,,,39.97862660000101,39.98952609999105,40.476122300024144,,39.30531610001344,40.489475600013975,,,,,,,,right,1,0.6726535999914631,None,,,,pilot,001,2026-04-15_20h30.58.191,midterm_project,,2026.1.1,60.16503268756271,2026-04-15 20h30.58.807999 +0800,
4,1,feature,right,7,7,0,right,1,0.5103416999918409,None,,,,,0,7,7,0,40.489475600013975,,,,,,,,,,,,,,,,,40.476308799989056,40.489475600013975,40.977579800004605,40.98491499997908,41.005316900031175,41.5276268000016,,,,,,,,41.527721800026484,41.53981470002327,42.02581540000392,,41.005316900031175,42.039386500022374,,,,,,,,right,1,0.5103416999918409,None,,,,pilot,001,2026-04-15_20h30.58.191,midterm_project,,2026.1.1,60.16503268756271,2026-04-15 20h30.58.807999 +0800,
12,0,feature,left,8,8,0,left,1,0.8068143000127748,None,,,,,0,8,8,28,42.039386500022374,,,,,,,,,,,,,,,,,42.02598610002315,42.039386500022374,42.52546620002249,42.545254299999215,42.571660300018266,43.394158000010066,,,,,,,,43.394245100033004,43.4056437999825,43.89181240001926,,42.571660300018266,43.90574369998649,,,,,,,,left,1,0.8068143000127748,None,,,,pilot,001,2026-04-15_20h30.58.191,midterm_project,,2026.1.1,60.16503268756271,2026-04-15 20h30.58.807999 +0800,
4,0,conjunction,left,9,9,0,left,1,0.9191816000384279,None,,,,,0,9,9,33,43.90574369998649,,,,,,,,,,,,,,,,,43.891969299991615,43.90574369998649,44.39194330002647,44.40351259999443,44.421288900019135,45.3436332999845,,,,,,,,45.34371829999145,45.35544050001772,45.84222639998188,,44.421288900019135,45.85494049999397,,,,,,,,left,1,0.9191816000384279,None,,,,pilot,001,2026-04-15_20h30.58.191,midterm_project,,2026.1.1,60.16503268756271,2026-04-15 20h30.58.807999 +0800,
4,1,conjunction,right,10,10,0,right,1,0.6450216000084765,None,,,,,0,10,10,18,45.85494049999397,,,,,,,,,,,,,,,,,45.842386100033764,45.85494049999397,46.34306550002657,46.355395600025076,46.37075940001523,47.02760869998019,,,,,,,,47.02769090002403,47.03845980000915,47.524869000015315,,46.37075940001523,47.53845150000416,,,,,,,,right,1,0.6450216000084765,None,,,,pilot,001,2026-04-15_20h30.58.191,midterm_project,,2026.1.1,60.16503268756271,2026-04-15 20h30.58.807999 +0800,
24,0,feature,left,11,11,0,left,1,0.7241078999941237,None,,,,,0,11,11,29,47.53845150000416,,,,,,,,,,,,,,,,,47.52503349998733,47.53845150000416,48.02722910000011,48.07124690001365,48.10421279998263,48.84267669997644,,,,,,,,48.84273989999201,48.85496830003103,49.34089180000592,,48.10421279998263,49.35491320001893,,,,,,,,left,1,0.7241078999941237,None,,,,pilot,001,2026-04-15_20h30.58.191,midterm_project,,2026.1.1,60.16503268756271,2026-04-15 20h30.58.807999 +0800,
4,1,feature,right,12,12,0,right,1,0.620060499990359,None,,,,,0,12,12,24,49.35491320001893,,,,,,,,,,,,,,,,,49.34103050001431,49.35491320001893,49.843597600003704,49.8515651000198,49.87062429997604,50.49296740000136,,,,,,,,50.49305900000036,50.50541460001841,50.99246300000232,,,51.004820200032555,,,,,,,,right,1,0.620060499990359,None,,,,pilot,001,2026-04-15_20h30.58.191,midterm_project,,2026.1.1,60.16503268756271,2026-04-15 20h30.58.807999 +0800,
12,0,feature,left,13,13,0,left,1,1.079237500031013,None,,,,,0,13,13,16,51.004820200032555,,,,,,,,,,,,,,,,,50.992638600000646,51.004820200032555,51.490892000030726,51.510077900020406,51.536970900022425,52.62547720002476,,,,,,,,52.62554119998822,52.63765420002164,53.125317300029565,,51.536970900022425,53.13762940000743,,,,,,,,left,1,1.079237500031013,None,,,,pilot,001,2026-04-15_20h30.58.191,midterm_project,,2026.1.1,60.16503268756271,2026-04-15 20h30.58.807999 +0800,
24,0,conjunction,left,14,14,0,right,0,1.1207770999753848,None,,,,,0,14,14,11,53.13762940000743,,,,,,,,,,,,,,,,,53.12552479997976,53.13762940000743,53.62374579999596,53.68497910001315,53.720006600022316,54.842618599999696,,,,,,,,54.842684200033545,54.85432949999813,55.34040639997693,,53.720006600022316,55.354097999981605,,,,,,,,right,0,1.1207770999753848,None,,,,pilot,001,2026-04-15_20h30.58.191,midterm_project,,2026.1.1,60.16503268756271,2026-04-15 20h30.58.807999 +0800,
12,0,conjunction,left,15,15,0,left,1,1.0125839000102133,None,,,,,0,15,15,10,55.354097999981605,,,,,,,,,,,,,,,,,55.34055919997627,55.354097999981605,55.84100389998639,55.87765500001842,55.903206999995746,56.92527369997697,,,,,,,,56.925350499979686,56.93726470001275,57.42578069999581,,55.903206999995746,,,,,,,,,left,1,1.0125839000102133,None,,,,pilot,001,2026-04-15_20h30.58.191,midterm_project,,2026.1.1,60.16503268756271,2026-04-15 20h30.58.807999 +0800,
24,0,conjunction,left,16,16,0,right,0,0.7881025999668054,None,,,,,0,16,16,23,57.4371810000157,,,,,,,,,,,,,,,,,57.42600440001115,57.4371810000157,57.92327510000905,57.98287700000219,58.00252450001426,58.792912199976854,,,,,,,,58.79298979998566,58.80374619999202,59.290584500005934,,58.00252450001426,59.3034618999809,,,,,,,,right,0,0.7881025999668054,None,,,,pilot,001,2026-04-15_20h30.58.191,midterm_project,,2026.1.1,60.16503268756271,2026-04-15 20h30.58.807999 +0800,
24,0,feature,left,17,17,0,left,1,0.6877978999982588,None,,,,,0,17,17,5,59.3034618999809,,,,,,,,,,,,,,,,,59.2907626000233,59.3034618999809,59.79002190002939,59.828022100031376,59.85274160001427,60.541301399993245,,,,,,,,60.54136730002938,60.55344829999376,61.040341300016735,,59.85274160001427,61.05350089998683,,,,,,,,left,1,0.6877978999982588,None,,,,pilot,001,2026-04-15_20h30.58.191,midterm_project,,2026.1.1,60.16503268756271,2026-04-15 20h30.58.807999 +0800,
4,1,conjunction,right,18,18,0,right,1,0.6597032000427134,None,,,,,0,18,18,30,61.05350089998683,,,,,,,,,,,,,,,,,61.04051969997818,61.05350089998683,61.541161599976476,61.55326930002775,61.56911600002786,62.240042600024026,,,,,,,,62.240113999985624,62.25276020000456,62.739476300019305,,61.56911600002786,62.75326169998152,,,,,,,,right,1,0.6597032000427134,None,,,,pilot,001,2026-04-15_20h30.58.191,midterm_project,,2026.1.1,60.16503268756271,2026-04-15 20h30.58.807999 +0800,
12,0,conjunction,left,19,19,0,left,1,1.176264900015667,None,,,,,0,19,19,22,62.75326169998152,,,,,,,,,,,,,,,,,62.739644600020256,62.75326169998152,63.23991920001572,63.276021700003184,63.30167200003052,64.48973359999945,,,,,,,,64.4897947999998,64.50297839997802,64.98909480002476,,63.30167200003052,65.00292009999976,,,,,,,,left,1,1.176264900015667,None,,,,pilot,001,2026-04-15_20h30.58.191,midterm_project,,2026.1.1,60.16503268756271,2026-04-15 20h30.58.807999 +0800,
24,1,conjunction,right,20,20,0,right,1,0.9427338999812491,None,,,,,0,20,20,20,65.00292009999976,,,,,,,,,,,,,,,,,64.98924770002486,65.00292009999976,65.4893052999978,65.55264040001202,65.58580729999812,66.54063619999215,,,,,,,,66.54069639998488,66.55287610000232,67.0415516999783,,65.58580729999812,,,,,,,,,right,1,0.9427338999812491,None,,,,pilot,001,2026-04-15_20h30.58.191,midterm_project,,2026.1.1,60.16503268756271,2026-04-15 20h30.58.807999 +0800,
24,1,feature,right,21,21,0,right,1,0.6889158999547362,None,,,,,0,21,21,26,67.05311989999609,,,,,,,,,,,,,,,,,67.04183830000693,67.05311989999609,67.5395365000004,67.57818549999502,67.60172710003098,68.29167690000031,,,,,,,,68.29175670002587,68.30214420001721,68.7889893000247,,67.60172710003098,68.80235910002375,,,,,,,,right,1,0.6889158999547362,None,,,,pilot,001,2026-04-15_20h30.58.191,midterm_project,,2026.1.1,60.16503268756271,2026-04-15 20h30.58.807999 +0800,
12,1,conjunction,right,22,22,0,right,1,0.9937172000063583,None,,,,,0,22,22,7,68.80235910002375,,,,,,,,,,,,,,,,,68.78914429998258,68.80235910002375,69.29013300000224,69.32138620002661,69.33513890003087,70.34116359998006,,,,,,,,70.34124249999877,70.35222840000642,70.83908340003109,,69.33513890003087,70.8521987000131,,,,,,,,right,1,0.9937172000063583,None,,,,pilot,001,2026-04-15_20h30.58.191,midterm_project,,2026.1.1,60.16503268756271,2026-04-15 20h30.58.807999 +0800,
4,0,conjunction,left,23,23,0,left,1,1.2981876999838278,None,,,,,0,23,23,21,70.8521987000131,,,,,,,,,,,,,,,,,70.83926310000243,70.8521987000131,71.33974429999944,71.35499610000988,71.36788859998342,72.67225900001358,,,,,,,,72.67232780001359,72.68488780001644,73.17247910000151,,71.36788859998342,,,,,,,,,left,1,1.2981876999838278,None,,,,pilot,001,2026-04-15_20h30.58.191,midterm_project,,2026.1.1,60.16503268756271,2026-04-15 20h30.58.807999 +0800,
12,0,feature,left,24,24,0,left,1,0.7360290999640711,None,,,,,0,24,24,4,73.1853086000192,,,,,,,,,,,,,,,,,73.17269670002861,73.1853086000192,73.67341200000374,73.69836500001838,73.71756979997735,74.45798870001454,,,,,,,,74.4581329000066,74.46778150001774,74.9563539000228,,,74.96958239999367,,,,,,,,left,1,0.7360290999640711,None,,,,pilot,001,2026-04-15_20h30.58.191,midterm_project,,2026.1.1,60.16503268756271,2026-04-15 20h30.58.807999 +0800,
4,1,conjunction,right,25,25,0,right,1,0.6026319999946281,None,,,,,0,25,25,6,74.96958239999367,,,,,,,,,,,,,,,,,74.95658659999026,74.96958239999367,75.47161270002834,75.48409009998431,75.50065840000752,76.10637880000286,,,,,,,,76.10646919999272,76.11794500000542,76.60544170002686,,,76.61817640002118,,,,,,,,right,1,0.6026319999946281,None,,,,pilot,001,2026-04-15_20h30.58.191,midterm_project,,2026.1.1,60.16503268756271,2026-04-15 20h30.58.807999 +0800,
12,1,feature,right,26,26,0,right,1,0.46520620002411306,None,,,,,0,26,26,1,76.61817640002118,,,,,,,,,,,,,,,,,76.6056112999795,76.61817640002118,77.10562769998796,77.13036040001316,77.15089079999598,77.62247679999564,,,,,,,,77.62254539999412,77.63463899999624,78.12203219998628,,77.15089079999598,78.13459119998151,,,,,,,,right,1,0.46520620002411306,None,,,,pilot,001,2026-04-15_20h30.58.191,midterm_project,,2026.1.1,60.16503268756271,2026-04-15 20h30.58.807999 +0800,
4,0,feature,left,27,27,0,left,1,0.6459081000066362,None,,,,,0,27,27,3,78.13459119998151,,,,,,,,,,,,,,,,,78.12221529998351,78.13459119998151,78.62075100000948,78.62673339998582,78.63401280000107,79.288546100026,,,,,,,,79.28862770000705,79.30107099999441,79.78868280001916,,78.63401280000107,79.80077849997906,,,,,,,,left,1,0.6459081000066362,None,,,,pilot,001,2026-04-15_20h30.58.191,midterm_project,,2026.1.1,60.16503268756271,2026-04-15 20h30.58.807999 +0800,
4,0,conjunction,left,28,28,0,left,1,0.8870779999997467,None,,,,,0,28,28,9,79.80077849997906,,,,,,,,,,,,,,,,,79.78885880002053,79.80077849997906,80.28869570000097,80.30300720001105,80.31630190002033,81.20570920000318,,,,,,,,81.2058031000197,81.21730170003138,81.70494650001638,,80.31630190002033,81.71733980003046,,,,,,,,left,1,0.8870779999997467,None,,,,pilot,001,2026-04-15_20h30.58.191,midterm_project,,2026.1.1,60.16503268756271,2026-04-15 20h30.58.807999 +0800,
12,0,conjunction,left,29,29,0,left,1,0.7745521999895573,None,,,,,0,29,29,34,81.71733980003046,,,,,,,,,,,,,,,,,81.70515769999474,81.71733980003046,82.20463799999561,82.23960520001128,82.26634460000787,83.05390160001116,,,,,,,,83.0539636000176,83.06768660002854,83.55429960001493,,82.26634460000787,,,,,,,,,left,1,0.7745521999895573,None,,,,pilot,001,2026-04-15_20h30.58.191,midterm_project,,2026.1.1,60.16503268756271,2026-04-15 20h30.58.807999 +0800,
24,1,conjunction,right,30,30,0,right,1,0.9791811999748461,None,,,,,0,30,30,8,83.56696810002904,,,,,,,,,,,,,,,,,83.55451400001766,83.56696810002904,84.05418109998573,84.1202507999842,84.1492084999918,85.1377909000148,,,,,,,,85.13785340002505,85.15035990002798,85.6378493999946,,,85.65012140001636,,,,,,,,right,1,0.9791811999748461,None,,,,pilot,001,2026-04-15_20h30.58.191,midterm_project,,2026.1.1,60.16503268756271,2026-04-15 20h30.58.807999 +0800,
24,0,feature,left,31,31,0,left,1,0.6041739000356756,None,,,,,0,31,31,17,85.65012140001636,,,,,,,,,,,,,,,,,85.63802820001729,85.65012140001636,86.1369220999768,86.17306830000598,86.19913289998658,86.80618840001989,,,,,,,,86.80625700001838,86.81681739998749,87.3033579000039,,86.19913289998658,87.31706359999953,,,,,,,,left,1,0.6041739000356756,None,,,,pilot,001,2026-04-15_20h30.58.191,midterm_project,,2026.1.1,60.16503268756271,2026-04-15 20h30.58.807999 +0800,
4,0,feature,left,32,32,0,left,1,0.5472959000035189,None,,,,,0,32,32,15,87.31706359999953,,,,,,,,,,,,,,,,,87.30353779997677,87.31706359999953,87.80338980001397,87.81089800002519,87.83219390001614,88.38686349999625,,,,,,,,88.38693570002215,88.39964509999845,88.88707029999932,,87.83219390001614,88.89966290001757,,,,,,,,left,1,0.5472959000035189,None,,,,pilot,001,2026-04-15_20h30.58.191,midterm_project,,2026.1.1,60.16503268756271,2026-04-15 20h30.58.807999 +0800,
4,1,feature,right,33,33,0,right,1,0.5879692999878898,None,,,,,0,33,33,12,88.89966290001757,,,,,,,,,,,,,,,,,88.88728129997617,88.89966290001757,89.38671709998744,89.39586180000333,89.41539229999762,90.01940599997761,,,,,,,,90.0194707000046,90.03389140003128,90.52021440002136,,89.41539229999762,,,,,,,,,right,1,0.5879692999878898,None,,,,pilot,001,2026-04-15_20h30.58.191,midterm_project,,2026.1.1,60.16503268756271,2026-04-15 20h30.58.807999 +0800,
12,1,feature,right,34,34,0,right,1,0.8378427000134252,None,,,,,0,34,34,25,90.53280859999359,,,,,,,,,,,,,,,,,90.52042070002062,90.53280859999359,91.01983230002224,91.04027519997908,91.06546610000078,91.91935989999911,,,,,,,,91.91942029999336,91.93239460000768,92.41969569999492,,,,,,,,,,,right,1,0.8378427000134252,None,,,,pilot,001,2026-04-15_20h30.58.191,midterm_project,,2026.1.1,60.16503268756271,2026-04-15 20h30.58.807999 +0800,
4,0,feature,left,35,35,0,left,1,0.631384199950844,None,,,,,0,35,35,27,92.43258379999315,,,,,,,,,,,,,,,,,92.41991519997828,92.43258379999315,92.91907539998647,92.92650120001053,92.94827210000949,93.58823380002286,,,,,,,,93.58830569998827,93.59903699997813,94.09004640002968,,92.94827210000949,,,,,,,,,left,1,0.631384199950844,None,,,,pilot,001,2026-04-15_20h30.58.191,midterm_project,,2026.1.1,60.16503268756271,2026-04-15 20h30.58.807999 +0800,
,,,,,,,,,,,,,,,,,,,,,,,,,,,,,,,,,,,,,,,,,,,,,,,,,,,,,,,,,,,,,,,,,,94.09020969999256,94.13122460001614,97.10350919998018,pilot,001,2026-04-15_20h30.58.191,midterm_project,,2026.1.1,60.16503268756271,2026-04-15 20h30.58.807999 +0800,
