set_size,target_present,condition_type,corr_resp,thisN,thisTrialN,thisRepN,key_resp.keys,key_resp.corr,key_resp.rt,key_resp.duration,practice_loop.thisRepN,practice_loop.thisTrialN,practice_loop.thisN,practice_loop.thisIndex,formal_loop.thisRepN,formal_loop.thisTrialN,formal_loop.thisN,formal_loop.thisIndex,thisRow.t,notes,piloting,start.started,open_text.started,start_key.started,start.stopped,start_key.keys,start_key.rt,start_key.duration,instr_practice.started,prac_text.started,prac_key.started,instr_practice.stopped,prac_key.keys,prac_key.rt,prac_key.duration,fixation.started,fix_text.started,fixation.stopped,trial.started,key_resp.started,trial.stopped,practice_loop.key_resp.keys,practice_loop.key_resp.corr,practice_loop.key_resp.rt,practice_loop.key_resp.duration,feedback.started,fb_text.started,feedback.stopped,fb_text.stopped,instr_formal.started,formal_text.started,formal_key.started,instr_formal.stopped,formal_key.keys,formal_key.rt,formal_key.duration,formal_loop.key_resp.keys,formal_loop.key_resp.corr,formal_loop.key_resp.rt,formal_loop.key_resp.duration,fix_text.stopped,thanks.started,thanks_text.started,thanks.stopped,participant,session,date,expName,expVersion,psychopyVersion,frameRate,expStart,
,,,,,,,,,,,,,,,,,,,,,True,0.02354989998275414,0.037393499980680645,0.037393499980680645,2.428015499957837,space,2.379019599989988,None,,,,,,,,,,,,,,,,,,,,,,,,,,,,,,,,,,,,,pilot,001,2026-04-15_11h40.16.202,midterm_project,,2026.1.1,60.06254913948419,2026-04-15 11h40.16.438966 +0800,
,,,,,,,,,,,,,,,,,,,,,,,,,,,,,2.4280657999916,2.4375393000082113,2.4375393000082113,3.473920999967959,space,1.0297259000362828,None,,,,,,,,,,,,,,,,,,,,,,,,,,,,,,pilot,001,2026-04-15_11h40.16.202,midterm_project,,2026.1.1,60.06254913948419,2026-04-15 11h40.16.438966 +0800,
24,1,conjunction,right,0,0,0,right,1,1.3835278999758884,None,0,0,0,4,,,,,3.503412699967157,,,,,,,,,,,,,,,,,3.48378439998487,3.503412699967157,3.975651499989908,4.047569099988323,4.070781399961561,5.459553099994082,right,1,1.3835278999758884,None,5.459616899956018,5.486747899965849,6.974330299999565,,,,,,,,,,,,,,,,,pilot,001,2026-04-15_11h40.16.202,midterm_project,,2026.1.1,60.06254913948419,2026-04-15 11h40.16.438966 +0800,
12,0,conjunction,left,1,1,0,left,1,1.2805881999665871,None,0,1,1,5,,,,,6.987003899994306,,,,,,,,,,,,,,,,,6.974537700007204,6.987003899994306,7.473685699980706,7.50911789998645,7.53618249995634,8.825412000005599,left,1,1.2805881999665871,None,8.825498999969568,8.83691589999944,10.324414799979422,10.336579499999061,,,,,,,,,,,,,,,,pilot,001,2026-04-15_11h40.16.202,midterm_project,,2026.1.1,60.06254913948419,2026-04-15 11h40.16.438966 +0800,
4,1,conjunction,right,2,2,0,right,1,1.1892748000100255,None,0,2,2,3,,,,,10.336579499999061,,,,,,,,,,,,,,,,,10.324561099987477,10.336579499999061,10.825831299996935,10.842141699977219,10.852537299972028,12.056661999959033,right,1,1.1892748000100255,None,12.056734499987215,12.069019499991555,13.556458999984898,13.56972799997311,,,,,,,,,,,,,,,,pilot,001,2026-04-15_11h40.16.202,midterm_project,,2026.1.1,60.06254913948419,2026-04-15 11h40.16.438966 +0800,
24,1,feature,right,3,3,0,left,0,1.2061825999990106,None,0,3,3,1,,,,,13.56972799997311,,,,,,,,,,,,,,,,,13.556639699963853,13.56972799997311,14.058403700008057,14.109397499996703,14.134701700008009,15.357859199983068,left,0,1.2061825999990106,None,15.35792219999712,15.386370799969882,16.872952500008978,,,,,,,,,,,,,,,,,pilot,001,2026-04-15_11h40.16.202,midterm_project,,2026.1.1,60.06254913948419,2026-04-15 11h40.16.438966 +0800,
4,1,feature,right,4,4,0,right,1,1.344909200037364,None,0,4,4,0,,,,,16.88600249995943,,,,,,,,,,,,,,,,,16.873126799997408,16.88600249995943,17.359331499959808,17.36920039996039,17.38509170000907,18.739489900006447,right,1,1.344909200037364,None,18.73956899996847,18.767206999997143,20.255911199958064,,,,,,,,,,,,,,,,,pilot,001,2026-04-15_11h40.16.202,midterm_project,,2026.1.1,60.06254913948419,2026-04-15 11h40.16.438966 +0800,
12,0,feature,left,5,5,0,None,0,,,0,5,5,2,,,,,20.268986799987033,,,,,,,,,,,,,,,,,20.25612259999616,20.268986799987033,20.754976700001862,20.772608699975535,20.801476900000125,22.75500639999518,None,0,,,22.75506499997573,22.767426899983548,24.254151300003286,,,,,,,,,,,,,,,,,pilot,001,2026-04-15_11h40.16.202,midterm_project,,2026.1.1,60.06254913948419,2026-04-15 11h40.16.438966 +0800,
,,,,,,,,,,,,,,,,,,,,,,,,,,,,,,,,,,,,,,,,,,,,,,,,,,24.254252599959727,24.26835349999601,24.26835349999601,28.572980400000233,space,4.299307500012219,None,,,,,,,,,pilot,001,2026-04-15_11h40.16.202,midterm_project,,2026.1.1,60.06254913948419,2026-04-15 11h40.16.438966 +0800,
4,0,conjunction,left,0,0,0,None,0,,,,,,,0,0,0,33,28.600261499988846,,,,,,,,,,,,,,,,,28.58625419996679,28.600261499988846,29.087774499959778,29.101457899960224,29.116300099994987,31.087850000010803,,,,,,,,,,,,,,,,None,0,,,,,,,pilot,001,2026-04-15_11h40.16.202,midterm_project,,2026.1.1,60.06254913948419,2026-04-15 11h40.16.438966 +0800,
4,1,feature,right,1,1,0,right,1,0.9134132000035606,None,,,,,0,1,1,0,31.101247799990233,,,,,,,,,,,,,,,,,31.08808809996117,31.101247799990233,31.58937479997985,31.601960300002247,31.616784199955873,32.537422199966386,,,,,,,,,,,,,,,,right,1,0.9134132000035606,None,,,,,pilot,001,2026-04-15_11h40.16.202,midterm_project,,2026.1.1,60.06254913948419,2026-04-15 11h40.16.438966 +0800,
24,0,conjunction,left,2,2,0,left,1,1.3474181999918073,None,,,,,0,2,2,11,32.55036709998967,,,,,,,,,,,,,,,,,32.53763119998621,32.55036709998967,33.03704619995551,33.09774749999633,33.13270989997545,34.48964119999437,,,,,,,,,,,,,,,,left,1,1.3474181999918073,None,33.13270989997545,,,,pilot,001,2026-04-15_11h40.16.202,midterm_project,,2026.1.1,60.06254913948419,2026-04-15 11h40.16.438966 +0800,
4,0,feature,left,3,3,0,left,1,0.9272978999651968,None,,,,,0,3,3,27,34.50002079998376,,,,,,,,,,,,,,,,,34.48982229997637,34.50002079998376,34.98621569998795,34.992767499992624,35.01553849998163,35.955564000003505,,,,,,,,,,,,,,,,left,1,0.9272978999651968,None,35.01553849998163,,,,pilot,001,2026-04-15_11h40.16.202,midterm_project,,2026.1.1,60.06254913948419,2026-04-15 11h40.16.438966 +0800,
24,0,feature,left,4,4,0,left,1,0.5984438000014052,None,,,,,0,4,4,17,35.96693769999547,,,,,,,,,,,,,,,,,35.95586409996031,35.96693769999547,36.45521569997072,36.496633999980986,36.5323958999943,37.14202819997445,,,,,,,,,,,,,,,,left,1,0.5984438000014052,None,36.5323958999943,,,,pilot,001,2026-04-15_11h40.16.202,midterm_project,,2026.1.1,60.06254913948419,2026-04-15 11h40.16.438966 +0800,
4,1,conjunction,right,5,5,0,right,1,0.6516686999821104,None,,,,,0,5,5,18,37.15024749998702,,,,,,,,,,,,,,,,,37.14229549997253,37.15024749998702,37.63804230000824,37.651527799956966,37.66564919997472,38.32072209997568,,,,,,,,,,,,,,,,right,1,0.6516686999821104,None,37.66564919997472,,,,pilot,001,2026-04-15_11h40.16.202,midterm_project,,2026.1.1,60.06254913948419,2026-04-15 11h40.16.438966 +0800,
4,0,feature,left,6,6,0,left,1,0.918232700030785,None,,,,,0,6,6,15,38.33319470001152,,,,,,,,,,,,,,,,,38.3209380999906,38.33319470001152,38.820416199974716,38.83006149996072,38.84897429996636,39.77075359999435,,,,,,,,,,,,,,,,left,1,0.918232700030785,None,38.84897429996636,,,,pilot,001,2026-04-15_11h40.16.202,midterm_project,,2026.1.1,60.06254913948419,2026-04-15 11h40.16.438966 +0800,
12,1,conjunction,right,7,7,0,right,1,1.7604362000129186,None,,,,,0,7,7,31,39.783090899989475,,,,,,,,,,,,,,,,,39.77098480000859,39.783090899989475,40.2703879000037,40.307439299998805,40.3317812999594,42.10301029996481,,,,,,,,,,,,,,,,right,1,1.7604362000129186,None,40.3317812999594,,,,pilot,001,2026-04-15_11h40.16.202,midterm_project,,2026.1.1,60.06254913948419,2026-04-15 11h40.16.438966 +0800,
24,1,feature,right,8,8,0,left,0,0.6896617000456899,None,,,,,0,8,8,2,42.11585699999705,,,,,,,,,,,,,,,,,42.10318609996466,42.11585699999705,42.60262169997441,42.64321429998381,42.66518319997704,43.35712999996031,,,,,,,,,,,,,,,,left,0,0.6896617000456899,None,42.66518319997704,,,,pilot,001,2026-04-15_11h40.16.202,midterm_project,,2026.1.1,60.06254913948419,2026-04-15 11h40.16.438966 +0800,
12,0,conjunction,left,9,9,0,right,0,0.9395997000392526,None,,,,,0,9,9,10,43.367738600005396,,,,,,,,,,,,,,,,,43.35737079998944,43.367738600005396,43.86896729998989,43.90059229999315,43.91516059997957,44.871499500004575,,,,,,,,,,,,,,,,right,0,0.9395997000392526,None,,,,,pilot,001,2026-04-15_11h40.16.202,midterm_project,,2026.1.1,60.06254913948419,2026-04-15 11h40.16.438966 +0800,
12,0,feature,left,10,10,0,left,1,0.8027462000027299,None,,,,,0,10,10,28,44.88209159998223,,,,,,,,,,,,,,,,,44.871741999988444,44.88209159998223,45.37253819999751,45.39940349996323,45.414608099963516,46.22216889995616,,,,,,,,,,,,,,,,left,1,0.8027462000027299,None,,,,,pilot,001,2026-04-15_11h40.16.202,midterm_project,,2026.1.1,60.06254913948419,2026-04-15 11h40.16.438966 +0800,
4,1,conjunction,right,11,11,0,right,1,0.9323177999467589,None,,,,,0,11,11,30,46.23211209999863,,,,,,,,,,,,,,,,,46.222424699983094,46.23211209999863,46.719069299986586,46.729470299964305,46.74779669998679,47.686076499987394,,,,,,,,,,,,,,,,right,1,0.9323177999467589,None,46.74779669998679,,,,pilot,001,2026-04-15_11h40.16.202,midterm_project,,2026.1.1,60.06254913948419,2026-04-15 11h40.16.438966 +0800,
12,1,conjunction,right,12,12,0,left,0,1.0339554999954998,None,,,,,0,12,12,7,47.69888380001066,,,,,,,,,,,,,,,,,47.68628639995586,47.69888380001066,48.18723779998254,48.22363789996598,48.247477199998684,49.2868803999736,,,,,,,,,,,,,,,,left,0,1.0339554999954998,None,,,,,pilot,001,2026-04-15_11h40.16.202,midterm_project,,2026.1.1,60.06254913948419,2026-04-15 11h40.16.438966 +0800,
12,0,conjunction,left,13,13,0,right,0,0.8702367999940179,None,,,,,0,13,13,34,49.298248399980366,,,,,,,,,,,,,,,,,49.287064699979965,49.298248399980366,49.786091599962674,49.82753459998639,49.847151800000574,50.71994539996376,,,,,,,,,,,,,,,,right,0,0.8702367999940179,None,49.847151800000574,,,,pilot,001,2026-04-15_11h40.16.202,midterm_project,,2026.1.1,60.06254913948419,2026-04-15 11h40.16.438966 +0800,
24,0,feature,left,14,14,0,left,1,1.2454096999717876,None,,,,,0,14,14,5,50.731268399977125,,,,,,,,,,,,,,,,,50.72013659996446,50.731268399977125,51.22080359997926,51.263032699993346,51.29732209997019,52.55277670000214,,,,,,,,,,,,,,,,left,1,1.2454096999717876,None,,,,,pilot,001,2026-04-15_11h40.16.202,midterm_project,,2026.1.1,60.06254913948419,2026-04-15 11h40.16.438966 +0800,
24,1,conjunction,right,15,15,0,right,1,1.483022800006438,None,,,,,0,15,15,20,52.564581999962684,,,,,,,,,,,,,,,,,52.552950499986764,52.564581999962684,53.051805299997795,53.11117369995918,53.147170799958985,54.63689590001013,,,,,,,,,,,,,,,,right,1,1.483022800006438,None,53.147170799958985,,,,pilot,001,2026-04-15_11h40.16.202,midterm_project,,2026.1.1,60.06254913948419,2026-04-15 11h40.16.438966 +0800,
24,0,feature,left,16,16,0,left,1,0.7668919999850914,None,,,,,0,16,16,29,54.647803400002886,,,,,,,,,,,,,,,,,54.63707289996091,54.647803400002886,55.137030599988066,55.184324399975594,55.213424399960786,55.98751909995917,,,,,,,,,,,,,,,,left,1,0.7668919999850914,None,,,,,pilot,001,2026-04-15_11h40.16.202,midterm_project,,2026.1.1,60.06254913948419,2026-04-15 11h40.16.438966 +0800,
12,1,conjunction,right,17,17,0,right,1,1.396099699952174,None,,,,,0,17,17,19,55.99712429998908,,,,,,,,,,,,,,,,,55.98775490000844,55.99712429998908,56.4861477999948,56.52170069998829,56.546490099979565,57.95066259999294,,,,,,,,,,,,,,,,right,1,1.396099699952174,None,56.546490099979565,,,,pilot,001,2026-04-15_11h40.16.202,midterm_project,,2026.1.1,60.06254913948419,2026-04-15 11h40.16.438966 +0800,
12,0,conjunction,left,18,18,0,left,1,0.846589699969627,None,,,,,0,18,18,22,57.96389439998893,,,,,,,,,,,,,,,,,57.9508319000015,57.96389439998893,58.45012749999296,58.4818862999673,58.496176499989815,59.350967600010335,,,,,,,,,,,,,,,,left,1,0.846589699969627,None,58.496176499989815,,,,pilot,001,2026-04-15_11h40.16.202,midterm_project,,2026.1.1,60.06254913948419,2026-04-15 11h40.16.438966 +0800,
12,0,feature,left,19,19,0,left,1,1.5338799000019208,None,,,,,0,19,19,16,59.36369410000043,,,,,,,,,,,,,,,,,59.351153299969155,59.36369410000043,59.8503068999853,59.86927339999238,59.8962465999648,61.434815099986736,,,,,,,,,,,,,,,,left,1,1.5338799000019208,None,59.8962465999648,,,,pilot,001,2026-04-15_11h40.16.202,midterm_project,,2026.1.1,60.06254913948419,2026-04-15 11h40.16.438966 +0800,
4,0,feature,left,20,20,0,left,1,0.6805426999926567,None,,,,,0,20,20,3,61.4467403999879,,,,,,,,,,,,,,,,,61.43502420000732,61.4467403999879,61.93586669996148,61.94685730000492,61.96251809998648,62.649907399958465,,,,,,,,,,,,,,,,left,1,0.6805426999926567,None,,,,,pilot,001,2026-04-15_11h40.16.202,midterm_project,,2026.1.1,60.06254913948419,2026-04-15 11h40.16.438966 +0800,
12,1,feature,right,21,21,0,right,1,0.7097796999732964,None,,,,,0,21,21,25,62.66317109996453,,,,,,,,,,,,,,,,,62.65009449998615,62.66317109996453,63.150229699967895,63.17250399995828,63.19545150001068,63.918346099962946,,,,,,,,,,,,,,,,right,1,0.7097796999732964,None,,,,,pilot,001,2026-04-15_11h40.16.202,midterm_project,,2026.1.1,60.06254913948419,2026-04-15 11h40.16.438966 +0800,
24,1,conjunction,right,22,22,0,right,1,0.7051319000311196,None,,,,,0,22,22,32,63.929947900003754,,,,,,,,,,,,,,,,,63.91856989997905,63.929947900003754,64.41732159996172,64.48315499996534,64.51245579996612,65.23502139997436,,,,,,,,,,,,,,,,right,1,0.7051319000311196,None,64.51245579996612,,,,pilot,001,2026-04-15_11h40.16.202,midterm_project,,2026.1.1,60.06254913948419,2026-04-15 11h40.16.438966 +0800,
4,1,conjunction,right,23,23,0,right,1,1.193785300012678,None,,,,,0,23,23,6,65.24626479996368,,,,,,,,,,,,,,,,,65.2352086000028,65.24626479996368,65.73481150000589,65.74880479997955,65.76174489996629,66.96725919999881,,,,,,,,,,,,,,,,right,1,1.193785300012678,None,65.76174489996629,,,,pilot,001,2026-04-15_11h40.16.202,midterm_project,,2026.1.1,60.06254913948419,2026-04-15 11h40.16.438966 +0800,
24,1,conjunction,right,24,24,0,right,1,1.2097460000077263,None,,,,,0,24,24,8,66.97927889996208,,,,,,,,,,,,,,,,,66.96749079995789,66.97927889996208,67.46536809997633,67.52309949998744,67.54554429999553,68.76841969997622,,,,,,,,,,,,,,,,right,1,1.2097460000077263,None,67.54554429999553,,,,pilot,001,2026-04-15_11h40.16.202,midterm_project,,2026.1.1,60.06254913948419,2026-04-15 11h40.16.438966 +0800,
4,0,conjunction,left,25,25,0,left,1,0.9229226000024937,None,,,,,0,25,25,9,68.77910839999095,,,,,,,,,,,,,,,,,68.76859319995856,68.77910839999095,69.26869359996635,69.28641439997591,69.29492119996576,70.2318179999711,,,,,,,,,,,,,,,,left,1,0.9229226000024937,None,,,,,pilot,001,2026-04-15_11h40.16.202,midterm_project,,2026.1.1,60.06254913948419,2026-04-15 11h40.16.438966 +0800,
4,1,feature,right,26,26,0,right,1,0.9814091999433003,None,,,,,0,26,26,24,70.245644599956,,,,,,,,,,,,,,,,,70.2319911000086,70.245644599956,70.73198260000208,70.73998239997309,70.7611668999889,71.74862269998994,,,,,,,,,,,,,,,,right,1,0.9814091999433003,None,,,,,pilot,001,2026-04-15_11h40.16.202,midterm_project,,2026.1.1,60.06254913948419,2026-04-15 11h40.16.438966 +0800,
24,0,conjunction,left,27,27,0,None,0,,,,,,,0,27,27,23,71.76184920000378,,,,,,,,,,,,,,,,,71.7488228000002,71.76184920000378,72.2483430999564,72.30702339997515,72.32816009997623,74.26504480000585,,,,,,,,,,,,,,,,None,0,,,72.32816009997623,,,,pilot,001,2026-04-15_11h40.16.202,midterm_project,,2026.1.1,60.06254913948419,2026-04-15 11h40.16.438966 +0800,
24,1,feature,right,28,28,0,left,0,1.0940547999925911,None,,,,,0,28,28,14,74.27832310000667,,,,,,,,,,,,,,,,,74.26524709997466,74.27832310000667,74.74909940001089,74.78669239999726,74.81071210000664,75.91675450000912,,,,,,,,,,,,,,,,left,0,1.0940547999925911,None,,,,,pilot,001,2026-04-15_11h40.16.202,midterm_project,,2026.1.1,60.06254913948419,2026-04-15 11h40.16.438966 +0800,
24,0,conjunction,left,29,29,0,left,1,1.669499600015115,None,,,,,0,29,29,35,75.92814410000574,,,,,,,,,,,,,,,,,75.91693609999493,75.92814410000574,76.4147141999565,76.47602919995552,76.51040719996672,78.18379909999203,,,,,,,,,,,,,,,,left,1,1.669499600015115,None,76.51040719996672,,,,pilot,001,2026-04-15_11h40.16.202,midterm_project,,2026.1.1,60.06254913948419,2026-04-15 11h40.16.438966 +0800,
24,1,feature,right,30,30,0,right,1,0.4865422999719158,None,,,,,0,30,30,26,78.1946066999808,,,,,,,,,,,,,,,,,78.18398179998621,78.1946066999808,78.68118949997006,78.71882379997987,78.7439069999964,79.23390269995434,,,,,,,,,,,,,,,,right,1,0.4865422999719158,None,78.7439069999964,,,,pilot,001,2026-04-15_11h40.16.202,midterm_project,,2026.1.1,60.06254913948419,2026-04-15 11h40.16.438966 +0800,
12,0,feature,left,31,31,0,left,1,1.1781550000305288,None,,,,,0,31,31,4,79.24434869998368,,,,,,,,,,,,,,,,,79.23408009996638,79.24434869998368,79.731181799958,79.75033309997525,79.77681169996504,80.96455899998546,,,,,,,,,,,,,,,,left,1,1.1781550000305288,None,79.77681169996504,,,,pilot,001,2026-04-15_11h40.16.202,midterm_project,,2026.1.1,60.06254913948419,2026-04-15 11h40.16.438966 +0800,
12,1,feature,right,32,32,0,right,1,0.7078497000038624,None,,,,,0,32,32,13,80.9772612999659,,,,,,,,,,,,,,,,,80.96474759996636,80.9772612999659,81.46509489999153,81.49154959997395,81.51003329997184,82.2323497000034,,,,,,,,,,,,,,,,right,1,0.7078497000038624,None,,,,,pilot,001,2026-04-15_11h40.16.202,midterm_project,,2026.1.1,60.06254913948419,2026-04-15 11h40.16.438966 +0800,
4,1,feature,right,33,33,0,left,0,0.6704820000450127,None,,,,,0,33,33,12,82.24430289998418,,,,,,,,,,,,,,,,,82.23256099998252,82.24430289998418,82.7314333000104,82.74075029999949,82.76004849997116,83.43555870000273,,,,,,,,,,,,,,,,left,0,0.6704820000450127,None,82.76004849997116,,,,pilot,001,2026-04-15_11h40.16.202,midterm_project,,2026.1.1,60.06254913948419,2026-04-15 11h40.16.438966 +0800,
12,1,feature,right,34,34,0,right,1,0.6663760000374168,None,,,,,0,34,34,1,83.44438479997916,,,,,,,,,,,,,,,,,83.43592509999871,83.44438479997916,83.9310717000044,83.95491699996637,83.97659209999256,84.64968500001123,,,,,,,,,,,,,,,,right,1,0.6663760000374168,None,83.97659209999256,,,,pilot,001,2026-04-15_11h40.16.202,midterm_project,,2026.1.1,60.06254913948419,2026-04-15 11h40.16.438966 +0800,
4,0,conjunction,left,35,35,0,left,1,0.5416153999976814,None,,,,,0,35,35,21,84.66045239998493,,,,,,,,,,,,,,,,,84.64990399999078,84.66045239998493,85.14896119997138,85.16554049996193,85.17640669998946,85.731448800012,,,,,,,,,,,,,,,,left,1,0.5416153999976814,None,85.17640669998946,,,,pilot,001,2026-04-15_11h40.16.202,midterm_project,,2026.1.1,60.06254913948419,2026-04-15 11h40.16.438966 +0800,
,,,,,,,,,,,,,,,,,,,,,,,,,,,,,,,,,,,,,,,,,,,,,,,,,,,,,,,,,,,,,,85.73161660000915,85.77646139997523,88.74694449995877,pilot,001,2026-04-15_11h40.16.202,midterm_project,,2026.1.1,60.06254913948419,2026-04-15 11h40.16.438966 +0800,
