set_size,target_present,condition_type,corr_resp,thisN,thisTrialN,thisRepN,key_resp.keys,key_resp.corr,key_resp.rt,key_resp.duration,practice_loop.thisRepN,practice_loop.thisTrialN,practice_loop.thisN,practice_loop.thisIndex,formal_loop.thisRepN,formal_loop.thisTrialN,formal_loop.thisN,formal_loop.thisIndex,thisRow.t,notes,piloting,start.started,open_text.started,start_key.started,start.stopped,start_key.keys,start_key.rt,start_key.duration,instr_practice.started,prac_text.started,prac_key.started,instr_practice.stopped,prac_key.keys,prac_key.rt,prac_key.duration,fixation.started,fix_text.started,fixation.stopped,trial.started,key_resp.started,trial.stopped,practice_loop.key_resp.keys,practice_loop.key_resp.corr,practice_loop.key_resp.rt,practice_loop.key_resp.duration,feedback.started,fb_text.started,feedback.stopped,ITI.started,ITI_text.started,ITI.stopped,fb_text.stopped,fix_text.stopped,instr_formal.started,formal_text.started,formal_key.started,instr_formal.stopped,formal_key.keys,formal_key.rt,formal_key.duration,formal_loop.key_resp.keys,formal_loop.key_resp.corr,formal_loop.key_resp.rt,formal_loop.key_resp.duration,ITI_text.stopped,thanks.started,thanks_text.started,thanks.stopped,participant,session,date,expName,expVersion,psychopyVersion,frameRate,expStart,
,,,,,,,,,,,,,,,,,,,,,True,0.01800599996931851,0.03313489997526631,0.03313489997526631,1.4080522999865934,space,1.3687540999962948,None,,,,,,,,,,,,,,,,,,,,,,,,,,,,,,,,,,,,,,,,,pilot,001,2026-04-15_20h39.15.548,midterm_project,,2026.1.1,60.2493116421647,2026-04-15 20h39.15.791712 +0800,
,,,,,,,,,,,,,,,,,,,,,,,,,,,,,1.4081009000074118,1.4168482999666594,1.4168482999666594,2.387663399975281,space,0.9601972000091337,None,,,,,,,,,,,,,,,,,,,,,,,,,,,,,,,,,,pilot,001,2026-04-15_20h39.15.548,midterm_project,,2026.1.1,60.2493116421647,2026-04-15 20h39.15.791712 +0800,
24,1,conjunction,right,0,0,0,right,1,1.3689440000453033,None,0,0,0,4,,,,,2.4159694999689236,,,,,,,,,,,,,,,,,2.3981308999937028,2.4159694999689236,2.8879874999984168,2.9565195000031963,2.982784599997103,4.356518800021149,right,1,1.3689440000453033,None,4.356591499992646,4.3816063000122085,5.870318899978884,5.870352700003423,5.884055399976205,6.370556599984411,,,,,,,,,,,,,,,,,,pilot,001,2026-04-15_20h39.15.548,midterm_project,,2026.1.1,60.2493116421647,2026-04-15 20h39.15.791712 +0800,
12,0,conjunction,left,1,1,0,None,0,,,0,1,1,5,,,,,6.38286519999383,,,,,,,,,,,,,,,,,6.370762899983674,6.38286519999383,6.86954300000798,6.9039169999887235,6.932118900003843,8.871159299975261,None,0,,,8.871231299999636,8.89849479997065,10.370136299985461,10.370182799990289,10.383530599996448,10.87152009998681,,,,,,,,,,,,,,,,,,pilot,001,2026-04-15_20h39.15.548,midterm_project,,2026.1.1,60.2493116421647,2026-04-15 20h39.15.791712 +0800,
12,0,feature,left,2,2,0,right,0,1.361976699961815,None,0,2,2,2,,,,,10.88458690000698,,,,,,,,,,,,,,,,,10.871791500016116,10.88458690000698,11.369706099969335,11.396057999983896,11.414977199980058,12.787176100013312,right,0,1.361976699961815,None,12.787256899988279,12.798975599987898,14.286087899992708,14.28612379997503,14.29855680000037,14.787985600007232,14.29855680000037,,,,,,,,,,,,,,,,,pilot,001,2026-04-15_20h39.15.548,midterm_project,,2026.1.1,60.2493116421647,2026-04-15 20h39.15.791712 +0800,
4,1,conjunction,right,3,3,0,left,0,0.8884849000023678,None,0,3,3,3,,,,,14.799177000008058,,,,,,,,,,,,,,,,,14.788225499971304,14.799177000008058,15.285035100008827,15.29456010001013,15.31387499999255,16.204634799971245,left,0,0.8884849000023678,None,16.204725400020834,16.230161399987992,17.72021910001058,17.720276099978946,17.73220460000448,18.219922000018414,,15.31387499999255,,,,,,,,,,,,,,,,pilot,001,2026-04-15_20h39.15.548,midterm_project,,2026.1.1,60.2493116421647,2026-04-15 20h39.15.791712 +0800,
24,1,feature,right,4,4,0,left,0,1.0713024999713525,None,0,4,4,1,,,,,18.23213159997249,,,,,,,,,,,,,,,,,18.220179500000086,18.23213159997249,18.718874600017443,18.755340299976524,18.78095519996714,19.852946200000588,left,0,1.0713024999713525,None,19.85301309998613,19.879264499992132,21.367535099969245,21.367577600001823,21.380957200017292,21.868060900014825,,,,,,,,,,,,,,,,,,pilot,001,2026-04-15_20h39.15.548,midterm_project,,2026.1.1,60.2493116421647,2026-04-15 20h39.15.791712 +0800,
4,1,feature,right,5,5,0,left,0,1.4545587000320666,None,0,5,5,0,,,,,21.88112929998897,,,,,,,,,,,,,,,,,21.868275200016797,21.88112929998897,22.367872899980284,22.375496499997098,22.39687599998433,23.866744500002824,left,0,1.4545587000320666,None,23.86683209997136,23.87991640000837,25.367030099965632,25.36706449999474,25.380217299971264,25.869293799973093,25.380217299971264,,,,,,,,,,,,,,,,,pilot,001,2026-04-15_20h39.15.548,midterm_project,,2026.1.1,60.2493116421647,2026-04-15 20h39.15.791712 +0800,
,,,,,,,,,,,,,,,,,,,,,,,,,,,,,,,,,,,,,,,,,,,,,,,,,,,,,,25.86942820000695,25.88069279998308,25.88069279998308,26.867438299988862,space,0.9716682999860495,None,,,,,,,,,pilot,001,2026-04-15_20h39.15.548,midterm_project,,2026.1.1,60.2493116421647,2026-04-15 20h39.15.791712 +0800,
24,0,feature,left,0,0,0,left,1,1.3603581999777816,None,,,,,0,0,0,29,26.895973699982278,,,,,,,,,,,,,,,,,26.87896100000944,26.895973699982278,27.367750799981877,27.4061464999686,27.429610399995,28.802982399996836,,,,,,,,28.803051299997605,28.813469199987594,29.30008239997551,,,,,,,,,,left,1,1.3603581999777816,None,29.313318500004243,,,,pilot,001,2026-04-15_20h39.15.548,midterm_project,,2026.1.1,60.2493116421647,2026-04-15 20h39.15.791712 +0800,
4,0,conjunction,left,1,1,0,left,1,0.9479670000146143,None,,,,,0,1,1,9,29.313318500004243,,,,,,,,,,,,,,,,,29.300275499990676,29.313318500004243,29.800079400010873,29.814886500011198,29.829178199986927,30.78362240002025,,,,,,,,30.78368930000579,30.79610330000287,31.284169299993664,,29.829178199986927,,,,,,,,left,1,0.9479670000146143,None,,,,,pilot,001,2026-04-15_20h39.15.548,midterm_project,,2026.1.1,60.2493116421647,2026-04-15 20h39.15.791712 +0800,
24,1,feature,right,2,2,0,right,1,0.6067164000123739,None,,,,,0,2,2,26,31.296610999968834,,,,,,,,,,,,,,,,,31.284397599985823,31.296610999968834,31.78334189997986,31.824720999982674,31.84544399997685,32.468294799968135,,,,,,,,32.468355599965435,32.47929479996674,32.96594510000432,,31.84544399997685,,,,,,,,right,1,0.6067164000123739,None,32.97968439996475,,,,pilot,001,2026-04-15_20h39.15.548,midterm_project,,2026.1.1,60.2493116421647,2026-04-15 20h39.15.791712 +0800,
24,0,conjunction,left,3,3,0,left,1,1.3020513000083156,None,,,,,0,3,3,11,32.97968439996475,,,,,,,,,,,,,,,,,32.9661366000073,32.97968439996475,33.466273800004274,33.52981560002081,33.56203580001602,34.86814550001873,,,,,,,,34.868218899995554,34.879084300016984,35.366749199980404,,33.56203580001602,,,,,,,,left,1,1.3020513000083156,None,35.37907309998991,,,,pilot,001,2026-04-15_20h39.15.548,midterm_project,,2026.1.1,60.2493116421647,2026-04-15 20h39.15.791712 +0800,
4,1,conjunction,right,4,4,0,right,1,0.9194393999641761,None,,,,,0,4,4,18,35.37907309998991,,,,,,,,,,,,,,,,,35.36696590000065,35.37907309998991,35.86536649998743,35.87554320000345,35.89536299998872,36.818214099970646,,,,,,,,36.818305999971926,36.82910289999563,37.316328199987765,,35.89536299998872,,,,,,,,right,1,0.9194393999641761,None,37.32926540001063,,,,pilot,001,2026-04-15_20h39.15.548,midterm_project,,2026.1.1,60.2493116421647,2026-04-15 20h39.15.791712 +0800,
24,1,conjunction,right,5,5,0,right,1,1.3908304999931715,None,,,,,0,5,5,20,37.32926540001063,,,,,,,,,,,,,,,,,37.31653130002087,37.32926540001063,37.81676879996667,37.88651609997032,37.91154669999378,39.318640100013,,,,,,,,39.31873309996445,39.32957770000212,39.81688619998749,,37.91154669999378,,,,,,,,right,1,1.3908304999931715,None,39.829570600006264,,,,pilot,001,2026-04-15_20h39.15.548,midterm_project,,2026.1.1,60.2493116421647,2026-04-15 20h39.15.791712 +0800,
12,1,conjunction,right,6,6,0,right,1,1.0868011999991722,None,,,,,0,6,6,7,39.829570600006264,,,,,,,,,,,,,,,,,39.81709329999285,39.829570600006264,40.31615500000771,40.35019129997818,40.37779900000896,41.46714029996656,,,,,,,,41.467223300016485,41.4794905000017,41.96593369997572,,40.37779900000896,,,,,,,,right,1,1.0868011999991722,None,41.97936369996751,,,,pilot,001,2026-04-15_20h39.15.548,midterm_project,,2026.1.1,60.2493116421647,2026-04-15 20h39.15.791712 +0800,
24,0,conjunction,left,7,7,0,left,1,1.4667795000132173,None,,,,,0,7,7,35,41.97936369996751,,,,,,,,,,,,,,,,,41.96612629998708,41.97936369996751,42.46558299998287,42.52957780001452,42.56083630002104,44.03492229996482,,,,,,,,44.034993799985386,44.04491769999731,44.53199190000305,,42.56083630002104,,,,,,,,left,1,1.4667795000132173,None,44.54503239999758,,,,pilot,001,2026-04-15_20h39.15.548,midterm_project,,2026.1.1,60.2493116421647,2026-04-15 20h39.15.791712 +0800,
24,1,conjunction,right,8,8,0,right,1,1.1590377999818884,None,,,,,0,8,8,32,44.54503239999758,,,,,,,,,,,,,,,,,44.5321827000007,44.54503239999758,45.03439529996831,45.10971900000004,45.14365839998936,46.31588780001039,,,,,,,,46.315947800001595,46.32749729999341,46.81433650001418,,45.14365839998936,,,,,,,,right,1,1.1590377999818884,None,46.82775339996442,,,,pilot,001,2026-04-15_20h39.15.548,midterm_project,,2026.1.1,60.2493116421647,2026-04-15 20h39.15.791712 +0800,
12,0,feature,left,9,9,0,left,1,0.667596900020726,None,,,,,0,9,9,28,46.82775339996442,,,,,,,,,,,,,,,,,46.81450330000371,46.82775339996442,47.31384939997224,47.332781600009184,47.36004260001937,48.03192909999052,,,,,,,,48.03199049999239,48.04446080001071,48.53477109997766,,47.36004260001937,,,,,,,,left,1,0.667596900020726,None,,,,,pilot,001,2026-04-15_20h39.15.548,midterm_project,,2026.1.1,60.2493116421647,2026-04-15 20h39.15.791712 +0800,
4,1,conjunction,right,10,10,0,left,0,1.3797307999921031,None,,,,,0,10,10,30,48.544762999983504,,,,,,,,,,,,,,,,,48.53504300001077,48.544762999983504,49.03076599998167,49.04041379998671,49.0596539999824,50.4480386999785,,,,,,,,50.44812339998316,50.46062349999556,50.94822700001532,,49.0596539999824,,,,,,,,left,0,1.3797307999921031,None,50.96068030002061,,,,pilot,001,2026-04-15_20h39.15.548,midterm_project,,2026.1.1,60.2493116421647,2026-04-15 20h39.15.791712 +0800,
4,1,feature,right,11,11,0,right,1,0.601623099995777,None,,,,,0,11,11,24,50.96068030002061,,,,,,,,,,,,,,,,,50.94844639999792,50.96068030002061,51.44716609996976,51.45424649998313,51.47604879998835,52.08158130000811,,,,,,,,52.08166720002191,52.0933526000008,52.580476099974476,,51.47604879998835,,,,,,,,right,1,0.601623099995777,None,52.5939755999716,,,,pilot,001,2026-04-15_20h39.15.548,midterm_project,,2026.1.1,60.2493116421647,2026-04-15 20h39.15.791712 +0800,
12,1,feature,right,12,12,0,right,1,0.5011579000274651,None,,,,,0,12,12,25,52.5939755999716,,,,,,,,,,,,,,,,,52.58065949997399,52.5939755999716,53.081372099986766,53.102871000010055,53.12624909996521,53.63050339999609,,,,,,,,53.63056570000481,53.64378729998134,54.13005570002133,,53.12624909996521,,,,,,,,right,1,0.5011579000274651,None,54.14326919999439,,,,pilot,001,2026-04-15_20h39.15.548,midterm_project,,2026.1.1,60.2493116421647,2026-04-15 20h39.15.791712 +0800,
4,0,feature,left,13,13,0,left,1,0.7688023999799043,None,,,,,0,13,13,3,54.14326919999439,,,,,,,,,,,,,,,,,54.130220799997915,54.14326919999439,54.63002949999645,54.637910299992654,54.659026900015306,55.43236979999347,,,,,,,,55.43244170001708,55.442647799965926,55.92968729999848,,54.659026900015306,,,,,,,,left,1,0.7688023999799043,None,55.94349149998743,,,,pilot,001,2026-04-15_20h39.15.548,midterm_project,,2026.1.1,60.2493116421647,2026-04-15 20h39.15.791712 +0800,
12,0,feature,left,14,14,0,left,1,0.7516066000098363,None,,,,,0,14,14,16,55.94349149998743,,,,,,,,,,,,,,,,,55.92985650000628,55.94349149998743,56.43083809997188,56.44960719998926,56.47572599997511,57.2305011000135,,,,,,,,57.230563000019174,57.24257790000411,57.73432290001074,,56.47572599997511,,,,,,,,left,1,0.7516066000098363,None,,,,,pilot,001,2026-04-15_20h39.15.548,midterm_project,,2026.1.1,60.2493116421647,2026-04-15 20h39.15.791712 +0800,
24,1,feature,right,15,15,0,right,1,0.9064726000069641,None,,,,,0,15,15,2,57.74330999999074,,,,,,,,,,,,,,,,,57.734578599978704,57.74330999999074,58.23001509997994,58.27122449997114,58.30851279996568,59.215734499972314,,,,,,,,59.21580999996513,59.2258761000121,59.71358229999896,,58.30851279996568,,,,,,,,right,1,0.9064726000069641,None,59.72648770001251,,,,pilot,001,2026-04-15_20h39.15.548,midterm_project,,2026.1.1,60.2493116421647,2026-04-15 20h39.15.791712 +0800,
24,0,feature,left,16,16,0,left,1,0.7020951000158675,None,,,,,0,16,16,5,59.72648770001251,,,,,,,,,,,,,,,,,59.71378629998071,59.72648770001251,60.21243080002023,60.24726410000585,60.27517989999615,60.98150110000279,,,,,,,,60.98156320000999,60.9927271999768,61.481373200018425,,60.27517989999615,,,,,,,,left,1,0.7020951000158675,None,61.492820999992546,,,,pilot,001,2026-04-15_20h39.15.548,midterm_project,,2026.1.1,60.2493116421647,2026-04-15 20h39.15.791712 +0800,
24,0,conjunction,left,17,17,0,left,1,1.7656883000163361,None,,,,,0,17,17,23,61.492820999992546,,,,,,,,,,,,,,,,,61.48158969997894,61.492820999992546,61.98008539999137,62.048111099982634,62.07491349999327,63.850285099993926,,,,,,,,63.850367399980314,63.85962760000257,64.3454708000063,,62.07491349999327,,,,,,,,left,1,1.7656883000163361,None,64.3589462999953,,,,pilot,001,2026-04-15_20h39.15.548,midterm_project,,2026.1.1,60.2493116421647,2026-04-15 20h39.15.791712 +0800,
24,0,feature,left,18,18,0,left,1,0.9448401000117883,None,,,,,0,18,18,17,64.3589462999953,,,,,,,,,,,,,,,,,64.3456492999685,64.3589462999953,64.84524290001718,64.88454729999648,64.90803849999793,65.86295209999662,,,,,,,,65.86301390000153,65.87531630002195,66.36164249997819,,64.90803849999793,,,,,,,,left,1,0.9448401000117883,None,66.37510030000703,,,,pilot,001,2026-04-15_20h39.15.548,midterm_project,,2026.1.1,60.2493116421647,2026-04-15 20h39.15.791712 +0800,
12,1,conjunction,right,19,19,0,right,1,0.7668162999907508,None,,,,,0,19,19,19,66.37510030000703,,,,,,,,,,,,,,,,,66.36180660000537,66.37510030000703,66.86263879999751,66.89693069999339,66.92437179997796,67.6971192000201,,,,,,,,67.69719619996613,67.7080689999857,68.1939784999704,,66.92437179997796,,,,,,,,right,1,0.7668162999907508,None,68.2076509000035,,,,pilot,001,2026-04-15_20h39.15.548,midterm_project,,2026.1.1,60.2493116421647,2026-04-15 20h39.15.791712 +0800,
24,1,conjunction,right,20,20,0,right,1,1.5119705999968573,None,,,,,0,20,20,8,68.2076509000035,,,,,,,,,,,,,,,,,68.19412469997769,68.2076509000035,68.69569600000978,68.75865959998919,68.7906872999738,70.31298629997764,,,,,,,,70.31305040000007,70.32472829998005,70.81362199998694,,68.7906872999738,,,,,,,,right,1,1.5119705999968573,None,,,,,pilot,001,2026-04-15_20h39.15.548,midterm_project,,2026.1.1,60.2493116421647,2026-04-15 20h39.15.791712 +0800,
12,1,conjunction,right,21,21,0,right,1,1.4083731000428088,None,,,,,0,21,21,31,70.82548920001136,,,,,,,,,,,,,,,,,70.8139110999764,70.82548920001136,71.3114813999855,71.3426485999953,71.35697149997577,72.77920609997818,,,,,,,,72.77928109996719,72.79056469997158,73.27677669998957,,71.35697149997577,,,,,,,,right,1,1.4083731000428088,None,73.29038839996792,,,,pilot,001,2026-04-15_20h39.15.548,midterm_project,,2026.1.1,60.2493116421647,2026-04-15 20h39.15.791712 +0800,
12,1,feature,right,22,22,0,right,1,0.7042051000171341,None,,,,,0,22,22,1,73.29038839996792,,,,,,,,,,,,,,,,,73.27692659996683,73.29038839996792,73.77783969999291,73.7982865999802,73.82336179999402,74.52863580000121,,,,,,,,74.52870999998413,74.54064879997168,75.02787089999765,,73.82336179999402,,,,,,,,right,1,0.7042051000171341,None,75.04062089999206,,,,pilot,001,2026-04-15_20h39.15.548,midterm_project,,2026.1.1,60.2493116421647,2026-04-15 20h39.15.791712 +0800,
24,1,feature,right,23,23,0,right,1,0.8507616000133567,None,,,,,0,23,23,14,75.04062089999206,,,,,,,,,,,,,,,,,75.02807449997636,75.04062089999206,75.5280110000167,75.565859299968,75.58962669997709,76.44568000000436,,,,,,,,76.44574649998685,76.45701899996493,76.94413299998268,,75.58962669997709,,,,,,,,right,1,0.8507616000133567,None,76.95768849999877,,,,pilot,001,2026-04-15_20h39.15.548,midterm_project,,2026.1.1,60.2493116421647,2026-04-15 20h39.15.791712 +0800,
4,1,feature,right,24,24,0,right,1,0.6546492999768816,None,,,,,0,24,24,12,76.95768849999877,,,,,,,,,,,,,,,,,76.9443176999921,76.95768849999877,77.44375709997257,77.45037520001642,77.47290619998239,78.14409179997165,,,,,,,,78.1441935999901,78.15670569997746,78.64415399997961,,77.47290619998239,,,,,,,,right,1,0.6546492999768816,None,78.65702629997395,,,,pilot,001,2026-04-15_20h39.15.548,midterm_project,,2026.1.1,60.2493116421647,2026-04-15 20h39.15.791712 +0800,
12,0,feature,left,25,25,0,left,1,0.538167099992279,None,,,,,0,25,25,4,78.65702629997395,,,,,,,,,,,,,,,,,78.6443416000111,78.65702629997395,79.1446124999784,79.16541040001903,79.18940789997578,79.72816619998775,,,,,,,,79.72824419999961,79.74020000000019,80.227324699983,,,,,,,,,,left,1,0.538167099992279,None,80.24000290001277,,,,pilot,001,2026-04-15_20h39.15.548,midterm_project,,2026.1.1,60.2493116421647,2026-04-15 20h39.15.791712 +0800,
4,0,conjunction,left,26,26,0,left,1,0.8853293000138365,None,,,,,0,26,26,33,80.24000290001277,,,,,,,,,,,,,,,,,80.22750729997642,80.24000290001277,80.72786669997731,80.74497850000625,80.75548890000209,81.6469242000021,,,,,,,,81.64700980001362,81.65611039998475,82.143053399981,,80.75548890000209,,,,,,,,left,1,0.8853293000138365,None,82.1571482999716,,,,pilot,001,2026-04-15_20h39.15.548,midterm_project,,2026.1.1,60.2493116421647,2026-04-15 20h39.15.791712 +0800,
4,1,feature,right,27,27,0,right,1,0.5552177999634296,None,,,,,0,27,27,0,82.1571482999716,,,,,,,,,,,,,,,,,82.14320789999329,82.1571482999716,82.64426289999392,82.65316950000124,82.67226889997255,83.24209070001962,,,,,,,,83.24215040000854,83.2559189000167,83.74270110001089,,82.67226889997255,,,,,,,,right,1,0.5552177999634296,None,,,,,pilot,001,2026-04-15_20h39.15.548,midterm_project,,2026.1.1,60.2493116421647,2026-04-15 20h39.15.791712 +0800,
12,0,conjunction,left,28,28,0,left,1,1.3850995000102557,None,,,,,0,28,28,34,83.75621479999973,,,,,,,,,,,,,,,,,83.74288219999289,83.75621479999973,84.2431585000013,84.27640239999164,84.30523639998864,85.69377349998103,,,,,,,,85.69383639999432,85.70599400001811,86.19309060001979,,,,,,,,,,left,1,1.3850995000102557,None,86.20617740001762,,,,pilot,001,2026-04-15_20h39.15.548,midterm_project,,2026.1.1,60.2493116421647,2026-04-15 20h39.15.791712 +0800,
4,0,feature,left,29,29,0,left,1,1.1715976999839768,None,,,,,0,29,29,27,86.20617740001762,,,,,,,,,,,,,,,,,86.19327909999993,86.20617740001762,86.69168280001031,86.69794990000082,86.70573599997442,87.8918868000037,,,,,,,,87.89196280000033,87.9057407999644,88.39146369998343,,86.70573599997442,,,,,,,,left,1,1.1715976999839768,None,88.40532449999591,,,,pilot,001,2026-04-15_20h39.15.548,midterm_project,,2026.1.1,60.2493116421647,2026-04-15 20h39.15.791712 +0800,
12,0,conjunction,left,30,30,0,left,1,1.8102432999876328,None,,,,,0,30,30,10,88.40532449999591,,,,,,,,,,,,,,,,,88.3916065999656,88.40532449999591,88.89306440000655,88.9308210000163,88.95463609998114,90.77598089998355,,,,,,,,90.77605109999422,90.78869040001882,91.27581710001687,,,,,,,,,,left,1,1.8102432999876328,None,91.2888086999883,,,,pilot,001,2026-04-15_20h39.15.548,midterm_project,,2026.1.1,60.2493116421647,2026-04-15 20h39.15.791712 +0800,
12,1,feature,right,31,31,0,right,1,0.6067934000166133,None,,,,,0,31,31,13,91.2888086999883,,,,,,,,,,,,,,,,,91.27600409998558,91.2888086999883,91.77729469997576,91.80079710000427,91.82134670001687,92.44179389998317,,,,,,,,92.44186750001973,92.45491560001392,92.94145340000978,,,,,,,,,,right,1,0.6067934000166133,None,92.95527619996574,,,,pilot,001,2026-04-15_20h39.15.548,midterm_project,,2026.1.1,60.2493116421647,2026-04-15 20h39.15.791712 +0800,
12,0,conjunction,left,32,32,0,left,1,1.3903035999974236,None,,,,,0,32,32,22,92.95527619996574,,,,,,,,,,,,,,,,,92.94163119996665,92.95527619996574,93.44136779999826,93.47271130001172,93.48736979998648,94.89284729998326,,,,,,,,94.89292989997193,94.9048815999995,95.39150199998403,,93.48736979998648,,,,,,,,left,1,1.3903035999974236,None,95.40455799998017,,,,pilot,001,2026-04-15_20h39.15.548,midterm_project,,2026.1.1,60.2493116421647,2026-04-15 20h39.15.791712 +0800,
4,0,conjunction,left,33,33,0,left,1,1.2079375000321306,None,,,,,0,33,33,21,95.40455799998017,,,,,,,,,,,,,,,,,95.3916889000102,95.40455799998017,95.89183179999236,95.90631350001786,95.92032510001445,97.14230989996577,,,,,,,,97.14239739999175,97.15464919997612,97.64417779998621,,95.92032510001445,,,,,,,,left,1,1.2079375000321306,None,,,,,pilot,001,2026-04-15_20h39.15.548,midterm_project,,2026.1.1,60.2493116421647,2026-04-15 20h39.15.791712 +0800,
4,0,feature,left,34,34,0,left,1,0.4700380000285804,None,,,,,0,34,34,15,97.65544090000913,,,,,,,,,,,,,,,,,97.64450359996408,97.65544090000913,98.14411990001099,98.15509369998472,98.17045699997107,98.64362869999604,,,,,,,,98.64373890002025,98.65446270001121,99.14129850000609,,,,,,,,,,left,1,0.4700380000285804,None,99.15427900000941,,,,pilot,001,2026-04-15_20h39.15.548,midterm_project,,2026.1.1,60.2493116421647,2026-04-15 20h39.15.791712 +0800,
4,1,conjunction,right,35,35,0,right,1,0.6080033999751322,None,,,,,0,35,35,6,99.15427900000941,,,,,,,,,,,,,,,,,99.14145910000661,99.15427900000941,99.64092420000816,99.65271569998004,99.66994130000239,100.2929658999783,,,,,,,,100.29306569998153,100.30477619997691,100.79375589999836,,99.66994130000239,,,,,,,,right,1,0.6080033999751322,None,,,,,pilot,001,2026-04-15_20h39.15.548,midterm_project,,2026.1.1,60.2493116421647,2026-04-15 20h39.15.791712 +0800,
,,,,,,,,,,,,,,,,,,,,,,,,,,,,,,,,,,,,,,,,,,,,,,,,,,,,,,,,,,,,,,,,,,100.79390859999694,100.81893900001887,103.80598110001301,pilot,001,2026-04-15_20h39.15.548,midterm_project,,2026.1.1,60.2493116421647,2026-04-15 20h39.15.791712 +0800,
