thisN,thisTrialN,thisRepN,set_size,target_present,condition_type,corr_resp,prac_key_resp.keys,prac_key_resp.corr,prac_key_resp.rt,prac_key_resp.duration,key_resp.keys,key_resp.corr,key_resp.rt,key_resp.duration,key_rest.keys,key_rest.rt,key_rest.duration,practice_repeat_loop.thisRepN,practice_repeat_loop.thisTrialN,practice_repeat_loop.thisN,practice_repeat_loop.thisIndex,practice_loop.thisRepN,practice_loop.thisTrialN,practice_loop.thisN,practice_loop.thisIndex,formal_loop.thisRepN,formal_loop.thisTrialN,formal_loop.thisN,formal_loop.thisIndex,thisRow.t,notes,piloting,start.started,open_text.started,start_key.started,start.stopped,start_key.keys,start_key.rt,start_key.duration,instr_practice.started,prac_text.started,prac_key.started,instr_practice.stopped,prac_key.keys,prac_key.rt,prac_key.duration,reset_prac_acc.started,reset_prac_acc.stopped,fixation.started,fix_text.started,fixation.stopped,trial_prac.started,prac_key_resp.started,trial_prac.stopped,practice_loop.prac_key_resp.keys,practice_loop.prac_key_resp.corr,practice_loop.prac_key_resp.rt,practice_loop.prac_key_resp.duration,feedback.started,fb_text.started,feedback.stopped,ITI.started,ITI_text.started,ITI.stopped,fix_text.stopped,fb_text.stopped,prac_feedback.started,prac_fb_text.started,prac_feedback.stopped,instr_formal.started,formal_text.started,formal_key.started,instr_formal.stopped,formal_key.keys,formal_key.rt,formal_key.duration,trial.started,key_resp.started,trial.stopped,formal_loop.key_resp.keys,formal_loop.key_resp.corr,formal_loop.key_resp.rt,formal_loop.key_resp.duration,ITI_text.stopped,rest_routine.started,rest_routine.stopped,formal_loop.key_rest.keys,rest_text.started,key_rest.started,formal_loop.key_rest.rt,formal_loop.key_rest.duration,thanks.started,thanks_text.started,thanks.stopped,participant,session,date,expName,expVersion,psychopyVersion,frameRate,expStart,
,,,,,,,,,,,,,,,,,,,,,,,,,,,,,,,,True,0.010005999996792525,0.024528899986762553,0.024528899986762553,1.1702956999652088,space,1.1263695000088774,None,,,,,,,,,,,,,,,,,,,,,,,,,,,,,,,,,,,,,,,,,,,,,,,,,,,,,,,,pilot,001,2026-04-19_11h15.56.386,midterm_project,,2026.1.1,59.854362371395496,2026-04-19 11h15.56.619290 +0800,
,,,,,,,,,,,,,,,,,,,,,,,,,,,,,,,,,,,,,,,,1.1703624000074342,1.191266599984374,1.191266599984374,1.5294790000189096,space,0.3343170000007376,None,,,,,,,,,,,,,,,,,,,,,,,,,,,,,,,,,,,,,,,,,,,,,,,,,pilot,001,2026-04-19_11h15.56.386,midterm_project,,2026.1.1,59.854362371395496,2026-04-19 11h15.56.619290 +0800,
0,0,0,12,0,feature,left,left,1,0.5925842999713495,None,,,,,,,,0,0,0,0,0,0,0,2,,,,,1.5575976999825798,,,,,,,,,,,,,,,,,1.5424757999717258,1.5424949000007473,1.542518200003542,1.5575976999825798,2.0490322000114247,2.0790151999681257,2.1079103999654762,2.7144798999652267,left,1,0.5925842999713495,None,2.7145732999779284,2.739916999998968,4.227873599971645,4.227912899979856,4.241647899965756,4.73120189999463,,,,,,,,,,,,,,,,,,,,,,,,,,,,,,,pilot,001,2026-04-19_11h15.56.386,midterm_project,,2026.1.1,59.854362371395496,2026-04-19 11h15.56.619290 +0800,
1,1,0,4,1,feature,right,left,0,0.5687096000183374,None,,,,,,,,0,0,0,0,0,1,1,0,,,,,4.7417648999835365,,,,,,,,,,,,,,,,,4.731520899978932,4.7315520999836735,4.731593000004068,4.7417648999835365,5.228390900010709,5.2365544000058435,5.257426299969666,5.8288941999780945,left,0,0.5687096000183374,None,5.828967900015414,5.840188300004229,7.327579299977515,7.327612199995201,7.3410913000116125,7.831391600018833,5.257426299969666,7.3410913000116125,,,,,,,,,,,,,,,,,,,,,,,,,,,,,pilot,001,2026-04-19_11h15.56.386,midterm_project,,2026.1.1,59.854362371395496,2026-04-19 11h15.56.619290 +0800,
2,2,0,24,1,feature,right,right,1,0.4101248999941163,None,,,,,,,,0,0,0,0,0,2,2,1,,,,,7.8416039000148885,,,,,,,,,,,,,,,,,7.8316772999824025,7.831704200012609,7.8317419000086375,7.8416039000148885,8.327892399975099,8.365795199992135,8.3902174999821,8.812386800011154,right,1,0.4101248999941163,None,8.812456400017254,8.840468499984127,10.326599399966653,10.326634500001092,10.340755800018087,10.813182700017933,8.3902174999821,,,,,,,,,,,,,,,,,,,,,,,,,,,,,,pilot,001,2026-04-19_11h15.56.386,midterm_project,,2026.1.1,59.854362371395496,2026-04-19 11h15.56.619290 +0800,
3,3,0,12,0,conjunction,left,left,1,0.8149134999839589,None,,,,,,,,0,0,0,0,0,3,3,5,,,,,10.823862999968696,,,,,,,,,,,,,,,,,10.813466399966273,10.813493900001049,10.813529999984894,10.823862999968696,11.311273599974811,11.35340510000242,11.373344099964015,12.194238999974914,left,1,0.8149134999839589,None,12.194308599981014,12.205982099985704,13.694902200018987,13.694957099971361,13.707362200017087,14.197243699978571,11.373344099964015,,,,,,,,,,,,,,,,,,,,,,,,,,,,,,pilot,001,2026-04-19_11h15.56.386,midterm_project,,2026.1.1,59.854362371395496,2026-04-19 11h15.56.619290 +0800,
4,4,0,4,1,conjunction,right,right,1,0.5773166000144556,None,,,,,,,,0,0,0,0,0,4,4,3,,,,,14.207302199967671,,,,,,,,,,,,,,,,,14.197679899982177,14.197723599965684,14.197779799986165,14.207302199967671,14.695474400010426,14.709708300011698,14.722936099977233,15.31102490000194,right,1,0.5773166000144556,None,15.311111399962101,15.338442499982193,16.82615249999799,16.826190299994778,16.839739799965173,17.326607699971646,14.722936099977233,,,,,,,,,,,,,,,,,,,,,,,,,,,,,,pilot,001,2026-04-19_11h15.56.386,midterm_project,,2026.1.1,59.854362371395496,2026-04-19 11h15.56.619290 +0800,
5,5,0,24,1,conjunction,right,right,1,1.1905185999930836,None,,,,,,,,0,0,0,0,0,5,5,4,,,,,17.339857199986,,,,,,,,,,,,,,,,,17.326805799966678,17.326823799987324,17.32685730000958,17.339857199986,17.82804459996987,17.895250000001397,17.922611200017855,19.12798059999477,right,1,1.1905185999930836,None,19.128046399971936,19.139700800005812,20.626124700007495,20.626158299972303,20.639158900012262,21.12940490001347,,20.639158900012262,,,,,,,,,,,,,,,,,,,,,,,,,,,,,pilot,001,2026-04-19_11h15.56.386,midterm_project,,2026.1.1,59.854362371395496,2026-04-19 11h15.56.619290 +0800,
0,0,0,,,,,,,,,,,,,,,,0,0,0,0,,,,,,,,,,,,,,,,,,,,,,,,,,,,,,,,,,,,,,,,,,,,,,21.135777199990116,21.154003600007854,23.142865800007712,,,,,,,,,,,,,,,,,,,,,,,,,,pilot,001,2026-04-19_11h15.56.386,midterm_project,,2026.1.1,59.854362371395496,2026-04-19 11h15.56.619290 +0800,
,,,,,,,,,,,,,,,,,,,,,,,,,,,,,,,,,,,,,,,,,,,,,,,,,,,,,,,,,,,,,,,,,,,,,,23.14393919997383,23.155888699984644,23.155888699984644,34.24065639998298,space,11.082465899991803,None,,,,,,,,,,,,,,,,,,,pilot,001,2026-04-19_11h15.56.386,midterm_project,,2026.1.1,59.854362371395496,2026-04-19 11h15.56.619290 +0800,
0,0,0,24,0,feature,left,,,,,left,1,0.6350759999477305,None,None,,,,,,,,,,,0,0,0,29,34.270169999974314,,,,,,,,,,,,,,,,,,,34.25864010001533,34.270169999974314,34.74191939999582,,,,,,,,,,,35.442382999986876,35.45385079999687,35.94210839999141,,,,,,,,,,,,,34.781917799962685,34.803466800018214,35.4423162000021,left,1,0.6350759999477305,None,35.954399699985515,35.942151199968066,35.942186300002504,None,,,,,,,,pilot,001,2026-04-19_11h15.56.386,midterm_project,,2026.1.1,59.854362371395496,2026-04-19 11h15.56.619290 +0800,
1,1,0,24,0,feature,left,,,,,left,1,0.33482710004318506,None,None,,,,,,,,,,,0,1,1,17,35.954399699985515,,,,,,,,,,,,,,,,,,,35.94238779996522,35.954399699985515,36.44138249999378,,,,,,,,,,,36.84242070000619,36.85405680001713,37.34201999998186,36.503704399976414,,,,,,,,,,,,36.48151179996785,36.503704399976414,36.84235459996853,left,1,0.33482710004318506,None,37.35454139998183,37.342070600017905,37.34210919996258,None,,,,,,,,pilot,001,2026-04-19_11h15.56.386,midterm_project,,2026.1.1,59.854362371395496,2026-04-19 11h15.56.619290 +0800,
2,2,0,12,0,conjunction,left,,,,,right,0,0.5190856999834068,None,None,,,,,,,,,,,0,2,2,34,37.35454139998183,,,,,,,,,,,,,,,,,,,37.34237029997166,37.35454139998183,37.857157699996606,,,,,,,,,,,38.44225620001089,38.45376439997926,38.94055890000891,,,,,,,,,,,,,37.892949000000954,37.919538699963596,38.442174799973145,right,0,0.5190856999834068,None,38.95370760001242,38.940599799971096,38.94063229998574,None,,,,,,,,pilot,001,2026-04-19_11h15.56.386,midterm_project,,2026.1.1,59.854362371395496,2026-04-19 11h15.56.619290 +0800,
3,3,0,4,0,conjunction,left,,,,,left,1,0.45745859999442473,None,None,,,,,,,,,,,0,3,3,9,38.95370760001242,,,,,,,,,,,,,,,,,,,38.940832399996,38.95370760001242,39.44030809996184,,,,,,,,,,,39.92950079997536,39.937387999962084,40.426742999989074,39.46921740000835,,,,,,,,,,,,39.453359699982684,39.46921740000835,39.92935960000614,left,1,0.45745859999442473,None,40.437059599964414,40.426789699995425,40.426829000003636,None,,,,,,,,pilot,001,2026-04-19_11h15.56.386,midterm_project,,2026.1.1,59.854362371395496,2026-04-19 11h15.56.619290 +0800,
4,4,0,24,0,conjunction,left,,,,,right,0,0.4658274000394158,None,None,,,,,,,,,,,0,4,4,11,40.437059599964414,,,,,,,,,,,,,,,,,,,40.427070099976845,40.437059599964414,40.92850039998302,,,,,,,,,,,41.51033760001883,41.51967870001681,42.006719500001054,,,,,,,,,,,,,41.0015106999781,41.03586519998498,41.510251400002744,right,0,0.4658274000394158,None,42.02024939999683,42.00675840000622,42.00678789999802,None,,,,,,,,pilot,001,2026-04-19_11h15.56.386,midterm_project,,2026.1.1,59.854362371395496,2026-04-19 11h15.56.619290 +0800,
5,5,0,24,1,conjunction,right,,,,,left,0,0.32358430000022054,None,None,,,,,,,,,,,0,5,5,8,42.02024939999683,,,,,,,,,,,,,,,,,,,42.00698880001437,42.02024939999683,42.50701459997799,,,,,,,,,,,42.94177059998037,42.95352819998516,43.44008709996706,,,,,,,,,,,,,42.56790369999362,42.602626400010195,42.9417029999895,left,0,0.32358430000022054,None,43.453675299999304,43.44013820000691,43.440170100016985,None,,,,,,,,pilot,001,2026-04-19_11h15.56.386,midterm_project,,2026.1.1,59.854362371395496,2026-04-19 11h15.56.619290 +0800,
6,6,0,12,1,conjunction,right,,,,,left,0,0.27424319996498525,None,None,,,,,,,,,,,0,6,6,7,43.453675299999304,,,,,,,,,,,,,,,,,,,43.440347699972335,43.453675299999304,43.94007179996697,,,,,,,,,,,44.29189930000575,44.30265420000069,44.79196649999358,44.00225700001465,,,,,,,,,,,,43.97630089998711,44.00225700001465,44.29182410001522,left,0,0.27424319996498525,None,44.80316700000549,44.79202389996499,44.79206999996677,None,,,,,,,,pilot,001,2026-04-19_11h15.56.386,midterm_project,,2026.1.1,59.854362371395496,2026-04-19 11h15.56.619290 +0800,
7,7,0,4,0,feature,left,,,,,left,1,0.8455345000256784,None,None,,,,,,,,,,,0,7,7,15,44.80316700000549,,,,,,,,,,,,,,,,,,,44.792342800006736,44.80316700000549,45.291993299964815,,,,,,,,,,,46.17345409997506,46.18631969997659,46.67315069999313,45.3188806999824,,,,,,,,,,,,45.30406170000788,45.3188806999824,46.17337089998182,left,1,0.8455345000256784,None,46.686327299976256,46.67319180001505,46.673222800018266,None,,,,,,,,pilot,001,2026-04-19_11h15.56.386,midterm_project,,2026.1.1,59.854362371395496,2026-04-19 11h15.56.619290 +0800,
8,8,0,4,1,feature,right,,,,,left,0,0.3997124999877997,None,None,,,,,,,,,,,0,8,8,12,46.686327299976256,,,,,,,,,,,,,,,,,,,46.67341539997142,46.686327299976256,47.17452359996969,,,,,,,,,,,47.60802499996498,47.61941929999739,48.10853650001809,,,,,,,,,,,,,47.1830705999746,47.20175539999036,47.60793900000863,left,0,0.3997124999877997,None,,48.108605000015814,48.10865750000812,None,,,,,,,,pilot,001,2026-04-19_11h15.56.386,midterm_project,,2026.1.1,59.854362371395496,2026-04-19 11h15.56.619290 +0800,
9,9,0,24,0,conjunction,left,,,,,left,1,0.4247528999694623,None,None,,,,,,,,,,,0,9,9,35,48.11985249997815,,,,,,,,,,,,,,,,,,,48.108975199982524,48.11985249997815,48.60760059999302,,,,,,,,,,,49.141145600005984,49.15254260000074,49.63970509998035,48.70187739998801,,,,,,,,,,,,48.675786299980246,48.70187739998801,49.14108109998051,left,1,0.4247528999694623,None,49.65248160000192,49.639750199974515,49.63978630001657,None,,,,,,,,pilot,001,2026-04-19_11h15.56.386,midterm_project,,2026.1.1,59.854362371395496,2026-04-19 11h15.56.619290 +0800,
10,10,0,4,1,conjunction,right,,,,,left,0,0.6088549999985844,None,None,,,,,,,,,,,0,10,10,6,49.65248160000192,,,,,,,,,,,,,,,,,,,49.640009699971415,49.65248160000192,50.1395474000019,,,,,,,,,,,50.789764199987985,50.80207370000426,51.2924556999933,50.1680116999778,,,,,,,,,,,,50.15159580000909,50.1680116999778,50.78963810001733,left,0,0.6088549999985844,None,,51.292529199970886,51.2925860999967,None,,,,,,,,pilot,001,2026-04-19_11h15.56.386,midterm_project,,2026.1.1,59.854362371395496,2026-04-19 11h15.56.619290 +0800,
11,11,0,12,0,feature,left,,,,,right,0,0.3423257999820635,None,None,,,,,,,,,,,0,11,11,16,51.30286830000114,,,,,,,,,,,,,,,,,,,51.292900800006464,51.30286830000114,51.788727000006475,,,,,,,,,,,52.18962419999298,52.20241819997318,52.687724499963224,51.83424910000758,,,,,,,,,,,,51.80794369999785,51.83424910000758,52.18954960000701,right,0,0.3423257999820635,None,52.701740899996366,52.68775739998091,52.68778189999284,None,,,,,,,,pilot,001,2026-04-19_11h15.56.386,midterm_project,,2026.1.1,59.854362371395496,2026-04-19 11h15.56.619290 +0800,
12,12,0,24,1,conjunction,right,,,,,right,1,0.29206420003902167,None,None,,,,,,,,,,,0,12,12,32,52.701740899996366,,,,,,,,,,,,,,,,,,,52.68793309998,52.701740899996366,53.18845690001035,,,,,,,,,,,53.58963629999198,53.60179699998116,54.08992160001071,,,,,,,,,,,,,53.24850280000828,53.2844551000162,53.589575199992396,right,1,0.29206420003902167,None,,54.08998409996275,54.09003159997519,None,,,,,,,,pilot,001,2026-04-19_11h15.56.386,midterm_project,,2026.1.1,59.854362371395496,2026-04-19 11h15.56.619290 +0800,
13,13,0,4,1,feature,right,,,,,right,1,0.4342661999980919,None,None,,,,,,,,,,,0,13,13,0,54.101865499978885,,,,,,,,,,,,,,,,,,,54.090291299973615,54.101865499978885,54.58799649996217,,,,,,,,,,,55.056991199962795,55.06875809998019,55.561228699982166,54.61755749996519,,,,,,,,,,,,54.59507779998239,54.61755749996519,55.056879799987655,right,1,0.4342661999980919,None,,55.561289399978705,55.56133699999191,None,,,,,,,,pilot,001,2026-04-19_11h15.56.386,midterm_project,,2026.1.1,59.854362371395496,2026-04-19 11h15.56.619290 +0800,
14,14,0,12,0,conjunction,left,,,,,right,0,0.30905610002810135,None,None,,,,,,,,,,,0,14,14,10,55.56864999997197,,,,,,,,,,,,,,,,,,,55.56159719999414,55.56864999997197,56.055519699992146,,,,,,,,,,,56.44275479996577,56.45180659997277,56.94082519999938,56.117381599964574,,,,,,,,,,,,56.090545499988366,56.117381599964574,56.4426664999919,right,0,0.30905610002810135,None,56.95199169998523,56.94088249997003,56.94092779996572,None,,,,,,,,pilot,001,2026-04-19_11h15.56.386,midterm_project,,2026.1.1,59.854362371395496,2026-04-19 11h15.56.619290 +0800,
15,15,0,24,0,conjunction,left,,,,,right,0,0.2806478999555111,None,None,,,,,,,,,,,0,15,15,23,56.95199169998523,,,,,,,,,,,,,,,,,,,56.94119599997066,56.95199169998523,57.437830100010615,,,,,,,,,,,57.822772299987264,57.834471500013024,58.32236310001463,57.53365870000562,,,,,,,,,,,,57.501405699993484,57.53365870000562,57.822706800012384,right,0,0.2806478999555111,None,58.33486639999319,58.322410199965816,58.322448599967174,None,,,,,,,,pilot,001,2026-04-19_11h15.56.386,midterm_project,,2026.1.1,59.854362371395496,2026-04-19 11h15.56.619290 +0800,
16,16,0,4,1,conjunction,right,,,,,left,0,0.2760835000080988,None,None,,,,,,,,,,,0,16,16,18,58.33486639999319,,,,,,,,,,,,,,,,,,,58.322676500014495,58.33486639999319,58.82383690000279,,,,,,,,,,,59.14078089996474,59.15104069997324,59.63798499997938,,,,,,,,,,,,,58.83919819997391,58.85078280000016,59.14065279997885,left,0,0.2760835000080988,None,59.65174980001757,59.638023199979216,59.6380529999733,None,,,,,,,,pilot,001,2026-04-19_11h15.56.386,midterm_project,,2026.1.1,59.854362371395496,2026-04-19 11h15.56.619290 +0800,
17,17,0,12,0,feature,left,,,,,right,0,0.5684273000224493,None,None,,,,,,,,,,,0,17,17,4,59.65174980001757,,,,,,,,,,,,,,,,,,,59.63825620000716,59.65174980001757,60.13876379997237,,,,,,,,,,,60.75821980001638,60.76769979996607,61.255379599984735,,,,,,,,,,,,,60.15926039998885,60.183531299990136,60.75811559997965,right,0,0.5684273000224493,None,61.26792459998978,61.25542609998956,61.255463999987114,None,,,,,,,,pilot,001,2026-04-19_11h15.56.386,midterm_project,,2026.1.1,59.854362371395496,2026-04-19 11h15.56.619290 +0800,
18,18,0,12,0,conjunction,left,,,,,left,1,0.78494809998665,None,None,,,,,,,,,,,0,18,18,22,61.26792459998978,,,,,,,,,,,,,,,,,,,61.25569059996633,61.26792459998978,61.7562070999993,,,,,,,,,,,62.605937400017865,62.61767329997383,63.104897500015795,,,,,,,,,,,,,61.79746500001056,61.81676760001574,62.60586000001058,left,1,0.78494809998665,None,63.11765279999236,63.104942000005394,63.10497739998391,None,,,,,,,,pilot,001,2026-04-19_11h15.56.386,midterm_project,,2026.1.1,59.854362371395496,2026-04-19 11h15.56.619290 +0800,
19,19,0,24,1,feature,right,,,,,right,1,0.5095591000281274,None,None,,,,,,,,,,,0,19,19,2,63.11765279999236,,,,,,,,,,,,,,,,,,,63.10521979996702,63.11765279999236,63.602845299988985,,,,,,,,,,,64.18875600001775,64.20040299999528,64.6862858000095,63.66648269997677,,,,,,,,,,,,63.63739940000232,63.66648269997677,64.18868650001241,right,1,0.5095591000281274,None,64.69986250001239,64.68631799996365,64.68635450000875,None,,,,,,,,pilot,001,2026-04-19_11h15.56.386,midterm_project,,2026.1.1,59.854362371395496,2026-04-19 11h15.56.619290 +0800,
20,20,0,4,0,conjunction,left,,,,,left,1,0.6111981000285596,None,space,1.6510194999864325,None,,,,,,,,,0,20,20,21,64.69986250001239,,,,,,,,,,,,,,,,,,,64.68652990000555,64.69986250001239,65.18688589998055,,,,,,,,,,,65.84040340001229,65.85086379997665,66.34180290001677,,,,,,,,,,,,,65.20178960001795,65.21610899997177,65.8402791999979,left,1,0.6111981000285596,None,,66.34187529998599,68.00603539997246,space,66.35063880000962,66.35063880000962,1.6510194999864325,None,,,,pilot,001,2026-04-19_11h15.56.386,midterm_project,,2026.1.1,59.854362371395496,2026-04-19 11h15.56.619290 +0800,
21,21,0,4,0,feature,left,,,,,left,1,0.4442335999920033,None,None,,,,,,,,,,,0,21,21,3,68.01661599997897,,,,,,,,,,,,,,,,,,,68.00631430000067,68.01661599997897,68.50529170001391,,,,,,,,,,,68.98573369998485,68.99981199996546,69.48842209996656,68.53258930001175,,,,,,,,,,,,68.5172917000018,68.53258930001175,68.98567129997537,left,1,0.4442335999920033,None,,69.488475799968,69.48852349998197,None,,,,,,,,pilot,001,2026-04-19_11h15.56.386,midterm_project,,2026.1.1,59.854362371395496,2026-04-19 11h15.56.619290 +0800,
22,22,0,4,0,conjunction,left,,,,,right,0,0.31915090000256896,None,None,,,,,,,,,,,0,22,22,33,69.49985239998205,,,,,,,,,,,,,,,,,,,69.48885809996864,69.49985239998205,69.99210639996454,,,,,,,,,,,70.35309749998851,70.36663319997024,70.85573720000684,,,,,,,,,,,,,70.0126983000082,70.03207509999629,70.3530361999874,right,0,0.31915090000256896,None,,70.85580109996954,70.85584869998274,None,,,,,,,,pilot,001,2026-04-19_11h15.56.386,midterm_project,,2026.1.1,59.854362371395496,2026-04-19 11h15.56.619290 +0800,
23,23,0,12,1,feature,right,,,,,left,0,0.2519268000032753,None,None,,,,,,,,,,,0,23,23,13,70.86568699998315,,,,,,,,,,,,,,,,,,,70.85613610001747,70.86568699998315,71.35523079999257,,,,,,,,,,,71.6540083999862,71.6658088999684,72.15276660001837,71.39942530001281,,,,,,,,,,,,71.38158549997024,71.39942530001281,71.6539250999922,left,0,0.2519268000032753,None,72.1661335999961,72.1528065999737,72.15283759997692,None,,,,,,,,pilot,001,2026-04-19_11h15.56.386,midterm_project,,2026.1.1,59.854362371395496,2026-04-19 11h15.56.619290 +0800,
24,24,0,24,1,feature,right,,,,,left,0,0.5490896999835968,None,None,,,,,,,,,,,0,24,24,26,72.1661335999961,,,,,,,,,,,,,,,,,,,72.15304599999217,72.1661335999961,72.65301519999048,,,,,,,,,,,73.27216270001372,73.28276839997852,73.76795189996483,,,,,,,,,,,,,72.6920620999881,72.71534439997049,73.27208450000035,left,0,0.5490896999835968,None,73.78197589999763,73.76798389997566,73.76800539996475,None,,,,,,,,pilot,001,2026-04-19_11h15.56.386,midterm_project,,2026.1.1,59.854362371395496,2026-04-19 11h15.56.619290 +0800,
25,25,0,4,1,conjunction,right,,,,,left,0,0.42863420001231134,None,None,,,,,,,,,,,0,25,25,30,73.78197589999763,,,,,,,,,,,,,,,,,,,73.76814659999218,73.78197589999763,74.26801930001238,,,,,,,,,,,74.7370962999994,74.74886079999851,75.23670589999529,74.29782500001602,,,,,,,,,,,,74.2776211000164,74.29782500001602,74.73702709999634,left,0,0.42863420001231134,None,75.2493184999912,75.23675149999326,75.23678699997254,None,,,,,,,,pilot,001,2026-04-19_11h15.56.386,midterm_project,,2026.1.1,59.854362371395496,2026-04-19 11h15.56.619290 +0800,
26,26,0,12,0,feature,left,,,,,right,0,0.4152569000143558,None,None,,,,,,,,,,,0,26,26,28,75.2493184999912,,,,,,,,,,,,,,,,,,,75.23700700001791,75.2493184999912,75.74396419996629,,,,,,,,,,,76.2193204999785,76.23182829999132,76.71943130000727,,,,,,,,,,,,,75.77381179999793,75.79885789996479,76.21926199999871,right,0,0.4152569000143558,None,76.73215180000989,76.71946789999492,76.71950279996963,None,,,,,,,,pilot,001,2026-04-19_11h15.56.386,midterm_project,,2026.1.1,59.854362371395496,2026-04-19 11h15.56.619290 +0800,
27,27,0,24,1,conjunction,right,,,,,left,0,0.4997045999625698,None,None,,,,,,,,,,,0,27,27,20,76.73215180000989,,,,,,,,,,,,,,,,,,,76.7196760000079,76.73215180000989,77.21998559997883,,,,,,,,,,,77.82059509999817,77.83162949996768,78.32217489997856,,,,,,,,,,,,,77.28733989998,77.314397500013,77.82052549999207,left,0,0.4997045999625698,None,,78.32225420000032,78.32231580000371,None,,,,,,,,pilot,001,2026-04-19_11h15.56.386,midterm_project,,2026.1.1,59.854362371395496,2026-04-19 11h15.56.619290 +0800,
28,28,0,4,1,feature,right,,,,,left,0,0.8003547000116669,None,None,,,,,,,,,,,0,28,28,24,78.33275830000639,,,,,,,,,,,,,,,,,,,78.32264590001432,78.33275830000639,78.83505609998247,,,,,,,,,,,79.67336730001261,79.68140780000249,80.16979919996811,,,,,,,,,,,,,78.84196799999336,78.86451139999554,79.67324229999213,left,0,0.8003547000116669,None,80.18165380001301,80.16984260000754,80.16987669997616,None,,,,,,,,pilot,001,2026-04-19_11h15.56.386,midterm_project,,2026.1.1,59.854362371395496,2026-04-19 11h15.56.619290 +0800,
29,29,0,12,1,conjunction,right,,,,,left,0,0.3375833000172861,None,None,,,,,,,,,,,0,29,29,31,80.18165380001301,,,,,,,,,,,,,,,,,,,80.17008710000664,80.18165380001301,80.66895029996522,,,,,,,,,,,81.0530331999762,81.06490659998963,81.55301759997383,80.71392479998758,,,,,,,,,,,,80.6996877999627,80.71392479998758,81.05295849998947,left,0,0.3375833000172861,None,81.56514759996207,81.55306459998246,81.55310119997011,None,,,,,,,,pilot,001,2026-04-19_11h15.56.386,midterm_project,,2026.1.1,59.854362371395496,2026-04-19 11h15.56.619290 +0800,
30,30,0,12,1,conjunction,right,,,,,left,0,0.47960850002709776,None,None,,,,,,,,,,,0,30,30,19,81.56514759996207,,,,,,,,,,,,,,,,,,,81.55333179997979,81.56514759996207,82.05110059998697,,,,,,,,,,,82.58474949997617,82.59795419999864,83.08676139998715,82.09726169996429,,,,,,,,,,,,82.08231640001759,82.09726169996429,82.58468829997582,left,0,0.47960850002709776,None,,83.08682640001643,83.08687790000113,None,,,,,,,,pilot,001,2026-04-19_11h15.56.386,midterm_project,,2026.1.1,59.854362371395496,2026-04-19 11h15.56.619290 +0800,
31,31,0,12,1,feature,right,,,,,left,0,0.47105530003318563,None,None,,,,,,,,,,,0,31,31,1,83.09845579997636,,,,,,,,,,,,,,,,,,,83.08715069998289,83.09845579997636,83.58510249998653,,,,,,,,,,,84.10284150001826,84.11464400001569,84.60162979998859,83.6304616999696,,,,,,,,,,,,83.60683969996171,83.6304616999696,84.1027590999729,left,0,0.47105530003318563,None,84.61426729999948,84.60166859999299,84.60170010000002,None,,,,,,,,pilot,001,2026-04-19_11h15.56.386,midterm_project,,2026.1.1,59.854362371395496,2026-04-19 11h15.56.619290 +0800,
32,32,0,4,0,feature,left,,,,,right,0,0.38384009996661916,None,None,,,,,,,,,,,0,32,32,27,84.61426729999948,,,,,,,,,,,,,,,,,,,84.60189170000376,84.61426729999948,85.10202109999955,,,,,,,,,,,85.51803179999115,85.5310649999883,86.01766449998831,,,,,,,,,,,,,85.11159950000001,85.13027019996662,85.51796249998733,right,0,0.38384009996661916,None,86.03084730001865,86.01770119997673,86.01773059996776,None,,,,,,,,pilot,001,2026-04-19_11h15.56.386,midterm_project,,2026.1.1,59.854362371395496,2026-04-19 11h15.56.619290 +0800,
33,33,0,24,0,feature,left,,,,,left,1,0.24281829997198656,None,None,,,,,,,,,,,0,33,33,5,86.03084730001865,,,,,,,,,,,,,,,,,,,86.0179079999798,86.03084730001865,86.51874610001687,,,,,,,,,,,86.85220949997893,86.86407409998355,87.35205679998035,,,,,,,,,,,,,86.56231159996241,86.59650250000414,86.85214679996716,left,1,0.24281829997198656,None,87.3645326999831,87.35210149997147,87.35213720001047,None,,,,,,,,pilot,001,2026-04-19_11h15.56.386,midterm_project,,2026.1.1,59.854362371395496,2026-04-19 11h15.56.619290 +0800,
34,34,0,24,1,feature,right,,,,,left,0,0.5973160000285134,None,None,,,,,,,,,,,0,34,34,14,87.3645326999831,,,,,,,,,,,,,,,,,,,87.352381100005,87.3645326999831,87.85274319996824,,,,,,,,,,,88.53643069998361,88.5469502999913,89.03289329999825,,,,,,,,,,,,,87.90969140001107,87.9299633000046,88.53634729998885,left,0,0.5973160000285134,None,89.04694099997869,89.03295049996814,89.03300920000765,None,,,,,,,,pilot,001,2026-04-19_11h15.56.386,midterm_project,,2026.1.1,59.854362371395496,2026-04-19 11h15.56.619290 +0800,
35,35,0,12,1,feature,right,,,,,left,0,0.40987329999916255,None,None,,,,,,,,,,,0,35,35,25,89.04694099997869,,,,,,,,,,,,,,,,,,,89.03321590000996,89.04694099997869,89.53307189996121,,,,,,,,,,,90.00131219998002,90.01381949998904,90.50189109996427,89.57935059996089,,,,,,,,,,,,89.55425069999183,89.57935059996089,90.00124269997468,left,0,0.40987329999916255,None,,90.5019442999619,90.50198180001462,None,,,,,,,,pilot,001,2026-04-19_11h15.56.386,midterm_project,,2026.1.1,59.854362371395496,2026-04-19 11h15.56.619290 +0800,
36,0,1,4,0,conjunction,left,,,,,left,1,0.021928499976638705,None,None,,,,,,,,,,,1,0,36,21,90.51391859998694,,,,,,,,,,,,,,,,,,,90.50223639997421,90.51391859998694,91.00079670001287,,,,,,,,,,,91.0662659999798,91.07992320001358,91.56667500000913,91.0295873999712,,,,,,,,,,,,91.01417739997851,91.0295873999712,91.06618039996829,left,1,0.021928499976638705,None,,91.56672259996412,91.56675559998257,None,,,,,,,,pilot,001,2026-04-19_11h15.56.386,midterm_project,,2026.1.1,59.854362371395496,2026-04-19 11h15.56.619290 +0800,
37,1,1,12,0,conjunction,left,,,,,right,0,0.33482059999369085,None,None,,,,,,,,,,,1,1,37,34,91.57957269996405,,,,,,,,,,,,,,,,,,,91.56693530001212,91.57957269996405,92.06776199996239,,,,,,,,,,,92.46999199996935,92.48148750001565,92.98349189996952,,,,,,,,,,,,,92.10379979998106,92.12950799998362,92.4698972000042,right,0,0.33482059999369085,None,,92.98354089999339,92.98357659997419,None,,,,,,,,pilot,001,2026-04-19_11h15.56.386,midterm_project,,2026.1.1,59.854362371395496,2026-04-19 11h15.56.619290 +0800,
38,2,1,24,1,feature,right,,,,,right,1,0.256051899981685,None,None,,,,,,,,,,,1,2,38,14,92.99665350001305,,,,,,,,,,,,,,,,,,,92.98378740000771,92.99665350001305,93.4843300000066,,,,,,,,,,,93.81742239999585,93.82988709997153,94.31673219997901,,,,,,,,,,,,,93.52214780001668,93.54593029996613,93.81736019998789,right,1,0.256051899981685,None,94.32990499999141,94.3167720999918,94.31681609997759,None,,,,,,,,pilot,001,2026-04-19_11h15.56.386,midterm_project,,2026.1.1,59.854362371395496,2026-04-19 11h15.56.619290 +0800,
39,3,1,4,0,feature,left,,,,,right,0,0.6565942000015639,None,None,,,,,,,,,,,1,3,39,15,94.32990499999141,,,,,,,,,,,,,,,,,,,94.31702149997,94.32990499999141,94.81832620000932,,,,,,,,,,,95.51775910001015,95.52965979999863,96.01626770000439,,,,,,,,,,,,,94.82873149996158,94.84548999997787,95.5176666000043,right,0,0.6565942000015639,None,96.02920729998732,96.01630499999737,96.01633459998993,None,,,,,,,,pilot,001,2026-04-19_11h15.56.386,midterm_project,,2026.1.1,59.854362371395496,2026-04-19 11h15.56.619290 +0800,
40,4,1,24,1,feature,right,,,,,right,1,0.30645340000046417,None,space,1.8764993000077084,None,,,,,,,,,1,4,40,2,96.02920729998732,,,,,,,,,,,,,,,,,,,96.01651799998945,96.02920729998732,96.51877580001019,,,,,,,,,,,96.9026404999895,96.9127945000073,97.40059679996921,,,,,,,,,,,,,96.56464810000034,96.59526669996558,96.9025523000164,right,1,0.30645340000046417,None,97.41291329998057,97.4006433999748,99.29913659999147,space,97.41291329998057,97.41291329998057,1.8764993000077084,None,,,,pilot,001,2026-04-19_11h15.56.386,midterm_project,,2026.1.1,59.854362371395496,2026-04-19 11h15.56.619290 +0800,
41,5,1,4,1,feature,right,,,,,left,0,0.3732583000091836,None,None,,,,,,,,,,,1,5,41,24,99.3123489000136,,,,,,,,,,,,,,,,,,,99.29934329999378,99.3123489000136,99.80013190000318,,,,,,,,,,,100.21812839998165,100.22907150001265,100.71500769996783,,,,,,,,,,,,,99.80884999997215,99.82844409998506,100.21802620001836,left,0,0.3732583000091836,None,100.72874449996743,100.71504149999237,100.7150673000142,None,,,,,,,,pilot,001,2026-04-19_11h15.56.386,midterm_project,,2026.1.1,59.854362371395496,2026-04-19 11h15.56.619290 +0800,
42,6,1,24,0,conjunction,left,,,,,left,1,0.3946235000039451,None,None,,,,,,,,,,,1,6,42,35,100.72874449996743,,,,,,,,,,,,,,,,,,,100.71522319997894,100.72874449996743,101.21517039998434,,,,,,,,,,,101.70214040001156,101.71275589999277,102.19970240001567,101.29496580001432,,,,,,,,,,,,101.27524059999269,101.29496580001432,101.7020610999898,left,1,0.3946235000039451,None,102.21248509996803,102.19975159998285,102.19979179999791,None,,,,,,,,pilot,001,2026-04-19_11h15.56.386,midterm_project,,2026.1.1,59.854362371395496,2026-04-19 11h15.56.619290 +0800,
43,7,1,4,0,conjunction,left,,,,,left,1,0.18636819999665022,None,None,,,,,,,,,,,1,7,43,33,102.21248509996803,,,,,,,,,,,,,,,,,,,102.20002200000454,102.21248509996803,102.69915259996196,,,,,,,,,,,102.9156277999864,102.92885369999567,103.41650089999894,102.727911999973,,,,,,,,,,,,102.71377129998291,102.727911999973,102.91556150000542,left,1,0.18636819999665022,None,,103.41656039998634,103.41660339996452,None,,,,,,,,pilot,001,2026-04-19_11h15.56.386,midterm_project,,2026.1.1,59.854362371395496,2026-04-19 11h15.56.619290 +0800,
44,8,1,24,0,feature,left,,,,,left,1,0.31150870001874864,None,None,,,,,,,,,,,1,8,44,17,103.42892019997817,,,,,,,,,,,,,,,,,,,103.41684789996361,103.42892019997817,103.91628219996346,,,,,,,,,,,104.3003083000076,104.3139072000049,104.81556640000781,103.97786189999897,,,,,,,,,,,,103.95708879997255,103.97786189999897,104.30023930000607,left,1,0.31150870001874864,None,,104.8156152999727,104.81565070000943,None,,,,,,,,pilot,001,2026-04-19_11h15.56.386,midterm_project,,2026.1.1,59.854362371395496,2026-04-19 11h15.56.619290 +0800,
45,9,1,24,0,feature,left,,,,,left,1,0.34475170000223443,None,None,,,,,,,,,,,1,9,45,29,104.8291091999854,,,,,,,,,,,,,,,,,,,104.81584769999608,104.8291091999854,105.31616719998419,,,,,,,,,,,105.74987240001792,105.76149559998885,106.25050490000285,,,,,,,,,,,,,105.35993859998416,105.39465249999193,105.74981649999972,left,1,0.34475170000223443,None,,106.2505722999922,106.25062309997156,None,,,,,,,,pilot,001,2026-04-19_11h15.56.386,midterm_project,,2026.1.1,59.854362371395496,2026-04-19 11h15.56.619290 +0800,
46,10,1,12,1,feature,right,,,,,left,0,0.3579989999998361,None,None,,,,,,,,,,,1,10,46,25,106.2625419999822,,,,,,,,,,,,,,,,,,,106.25092199997744,106.2625419999822,106.74986330000684,,,,,,,,,,,107.16501439997228,107.17805099999532,107.66499949997524,106.79393129999517,,,,,,,,,,,,106.77389999997104,106.79393129999517,107.1649475999875,left,0,0.3579989999998361,None,107.67824599996675,107.66504180000629,107.66507529997034,None,,,,,,,,pilot,001,2026-04-19_11h15.56.386,midterm_project,,2026.1.1,59.854362371395496,2026-04-19 11h15.56.619290 +0800,
47,11,1,12,0,feature,left,,,,,right,0,0.3411367000080645,None,None,,,,,,,,,,,1,11,47,28,107.67824599996675,,,,,,,,,,,,,,,,,,,107.66527519997908,107.67824599996675,108.16493849997642,,,,,,,,,,,108.56531380000524,108.5778593000141,109.06508369999938,108.21060379996197,,,,,,,,,,,,108.184665400011,108.21060379996197,108.56524319999153,right,0,0.3411367000080645,None,109.07781380001688,109.0651265999768,109.06515999999829,None,,,,,,,,pilot,001,2026-04-19_11h15.56.386,midterm_project,,2026.1.1,59.854362371395496,2026-04-19 11h15.56.619290 +0800,
48,12,1,24,1,conjunction,right,,,,,right,1,0.26615849998779595,None,None,,,,,,,,,,,1,12,48,8,109.07781380001688,,,,,,,,,,,,,,,,,,,109.06536900001811,109.07781380001688,109.56733489996986,,,,,,,,,,,109.93497469997965,109.94472809997387,110.431333000015,,,,,,,,,,,,,109.63226879999274,109.6607132999925,109.93488499999512,right,1,0.26615849998779595,None,110.44410999998217,110.43136669998057,110.43139300000621,None,,,,,,,,pilot,001,2026-04-19_11h15.56.386,midterm_project,,2026.1.1,59.854362371395496,2026-04-19 11h15.56.619290 +0800,
49,13,1,12,0,feature,left,,,,,right,0,0.2743305000476539,None,None,,,,,,,,,,,1,13,49,4,110.44410999998217,,,,,,,,,,,,,,,,,,,110.43155879998812,110.44410999998217,110.93147820001468,,,,,,,,,,,111.26448000001255,111.27768599998672,111.76579279999714,,,,,,,,,,,,,110.95304880000185,110.97733259998495,111.26441890001297,right,0,0.2743305000476539,None,,111.76585199998226,111.76589539996348,None,,,,,,,,pilot,001,2026-04-19_11h15.56.386,midterm_project,,2026.1.1,59.854362371395496,2026-04-19 11h15.56.619290 +0800,
50,14,1,4,0,feature,left,,,,,right,0,0.3091894999961369,None,None,,,,,,,,,,,1,14,50,27,111.77763209998375,,,,,,,,,,,,,,,,,,,111.76613539998652,111.77763209998375,112.2646420999663,,,,,,,,,,,112.6146780999843,112.62745989998803,113.11461260000942,112.29265770001803,,,,,,,,,,,,112.27298850001534,112.29265770001803,112.61460470000748,right,0,0.3091894999961369,None,113.12748049997026,113.11465060000774,113.11467899999116,None,,,,,,,,pilot,001,2026-04-19_11h15.56.386,midterm_project,,2026.1.1,59.854362371395496,2026-04-19 11h15.56.619290 +0800,
51,15,1,12,0,conjunction,left,,,,,right,0,0.17522239999379963,None,None,,,,,,,,,,,1,15,51,22,113.12748049997026,,,,,,,,,,,,,,,,,,,113.11485750001157,113.12748049997026,113.61376839998411,,,,,,,,,,,113.8638101000106,113.87725630000932,114.36438759998418,113.67662679997738,,,,,,,,,,,,113.6483559999615,113.67662679997738,113.86373949999688,right,0,0.17522239999379963,None,,114.36443989997497,114.3644780999748,None,,,,,,,,pilot,001,2026-04-19_11h15.56.386,midterm_project,,2026.1.1,59.854362371395496,2026-04-19 11h15.56.619290 +0800,
52,16,1,24,0,feature,left,,,,,right,0,0.3504172000102699,None,None,,,,,,,,,,,1,16,52,5,114.37689239997417,,,,,,,,,,,,,,,,,,,114.36469099996611,114.37689239997417,114.8644142000121,,,,,,,,,,,115.28250219998881,115.29346089996397,115.78199689998291,114.92654149996815,,,,,,,,,,,,114.90304639999522,114.92654149996815,115.28243479999946,right,0,0.3504172000102699,None,115.79456030001165,115.78204939997522,115.78209110000171,None,,,,,,,,pilot,001,2026-04-19_11h15.56.386,midterm_project,,2026.1.1,59.854362371395496,2026-04-19 11h15.56.619290 +0800,
53,17,1,12,1,conjunction,right,,,,,right,1,0.33408719999715686,None,None,,,,,,,,,,,1,17,53,7,115.79456030001165,,,,,,,,,,,,,,,,,,,115.78234400000656,115.79456030001165,116.28086130000884,,,,,,,,,,,116.68180859996937,116.69375669996953,117.18012749997433,116.34286019997671,,,,,,,,,,,,116.31540409999434,116.34286019997671,116.68172609998146,right,1,0.33408719999715686,None,117.19355259998702,117.18016469996655,117.18019420001656,None,,,,,,,,pilot,001,2026-04-19_11h15.56.386,midterm_project,,2026.1.1,59.854362371395496,2026-04-19 11h15.56.619290 +0800,
54,18,1,24,1,feature,right,,,,,right,1,0.304889400023967,None,None,,,,,,,,,,,1,18,54,26,117.19355259998702,,,,,,,,,,,,,,,,,,,117.18037359998561,117.19355259998702,117.68465860001743,,,,,,,,,,,118.06582839996554,118.07671759999357,118.5632511000149,,,,,,,,,,,,,117.73624749999726,117.75945389998378,118.0657579000108,right,1,0.304889400023967,None,118.57695809996221,118.5632903999649,118.56332040001871,None,,,,,,,,pilot,001,2026-04-19_11h15.56.386,midterm_project,,2026.1.1,59.854362371395496,2026-04-19 11h15.56.619290 +0800,
55,19,1,12,0,conjunction,left,,,,,right,0,0.33099180000135675,None,None,,,,,,,,,,,1,19,55,10,118.57695809996221,,,,,,,,,,,,,,,,,,,118.56351499998709,118.57695809996221,119.06293539999751,,,,,,,,,,,119.44796129997121,119.45978510001441,119.94675130001269,119.10911570000462,,,,,,,,,,,,119.09361059998628,119.10911570000462,119.44789619999938,right,0,0.33099180000135675,None,119.95983020000858,119.94678980001481,119.94682030001422,None,,,,,,,,pilot,001,2026-04-19_11h15.56.386,midterm_project,,2026.1.1,59.854362371395496,2026-04-19 11h15.56.619290 +0800,
56,20,1,12,1,feature,right,,,,,right,1,0.020852799993008375,None,None,,,,,,,,,,,1,20,56,1,119.95983020000858,,,,,,,,,,,,,,,,,,,119.94701449997956,119.95983020000858,120.4478945999872,,,,,,,,,,,120.53019019996282,120.54246799997054,121.03142509999452,,,,,,,,,,,,,120.47175470000366,120.49344220000785,120.53012509999098,right,1,0.020852799993008375,None,,121.0314918999793,121.03154090000317,None,,,,,,,,pilot,001,2026-04-19_11h15.56.386,midterm_project,,2026.1.1,59.854362371395496,2026-04-19 11h15.56.619290 +0800,
57,21,1,4,1,conjunction,right,,,,,right,1,0.5438361000269651,None,None,,,,,,,,,,,1,21,57,18,121.04325449996395,,,,,,,,,,,,,,,,,,,121.03181010001572,121.04325449996395,121.53170729998965,,,,,,,,,,,122.11471739999251,122.12623699998949,122.61281109997071,,,,,,,,,,,,,121.54507669998566,121.55855670000892,122.11463339999318,right,1,0.5438361000269651,None,122.62625019997358,122.612847100012,122.61287569999695,None,,,,,,,,pilot,001,2026-04-19_11h15.56.386,midterm_project,,2026.1.1,59.854362371395496,2026-04-19 11h15.56.619290 +0800,
58,22,1,4,1,feature,right,,,,,right,1,0.41070040001068264,None,None,,,,,,,,,,,1,22,58,0,122.62625019997358,,,,,,,,,,,,,,,,,,,122.61305189999985,122.62625019997358,123.1128351999796,,,,,,,,,,,123.56522579997545,123.57613990001846,124.06182559998706,123.14161429996602,,,,,,,,,,,,123.12033499998506,123.14161429996602,123.56512280000607,right,1,0.41070040001068264,None,124.07599679997656,124.06185800000094,124.06188160000602,None,,,,,,,,pilot,001,2026-04-19_11h15.56.386,midterm_project,,2026.1.1,59.854362371395496,2026-04-19 11h15.56.619290 +0800,
59,23,1,12,1,conjunction,right,,,,,right,1,0.5895864999620244,None,None,,,,,,,,,,,1,23,59,31,124.07599679997656,,,,,,,,,,,,,,,,,,,124.06204300001264,124.07599679997656,124.56358610000461,,,,,,,,,,,125.22979359998135,125.24213999998756,125.72849999996834,,,,,,,,,,,,,124.59826260001864,124.62506579997716,125.22972609999124,right,1,0.5895864999620244,None,125.74213819997385,125.72853630001191,125.72856229997706,None,,,,,,,,pilot,001,2026-04-19_11h15.56.386,midterm_project,,2026.1.1,59.854362371395496,2026-04-19 11h15.56.619290 +0800,
60,24,1,24,0,conjunction,left,,,,,left,1,0.3892935999901965,None,space,1.1218695999705233,None,,,,,,,,,1,24,60,11,125.74213819997385,,,,,,,,,,,,,,,,,,,125.728726500005,125.74213819997385,126.2300772999879,,,,,,,,,,,126.73092639999231,126.74216849997174,127.22932459996082,,,,,,,,,,,,,126.30267269996693,126.32504139997764,126.73086289997445,left,1,0.3892935999901965,None,127.24255869997432,127.22937829996226,128.3782756999717,space,127.24255869997432,127.24255869997432,1.1218695999705233,None,,,,pilot,001,2026-04-19_11h15.56.386,midterm_project,,2026.1.1,59.854362371395496,2026-04-19 11h15.56.619290 +0800,
61,25,1,24,1,conjunction,right,,,,,right,1,0.5266016999958083,None,None,,,,,,,,,,,1,25,61,32,128.39172680000775,,,,,,,,,,,,,,,,,,,128.37846919998992,128.39172680000775,128.8774575999705,,,,,,,,,,,129.51415689999703,129.52512910001678,130.01170490001095,128.97545829997398,,,,,,,,,,,,128.93695679999655,128.97545829997398,129.5140927999746,right,1,0.5266016999958083,None,130.02501360001042,130.01174159999937,130.01177039998583,None,,,,,,,,pilot,001,2026-04-19_11h15.56.386,midterm_project,,2026.1.1,59.854362371395496,2026-04-19 11h15.56.619290 +0800,
62,26,1,4,1,conjunction,right,,,,,left,0,0.2991106000263244,None,None,,,,,,,,,,,1,26,62,30,130.02501360001042,,,,,,,,,,,,,,,,,,,130.0119471999933,130.02501360001042,130.51238039997406,,,,,,,,,,,130.85094779997598,130.85886979999486,131.34534060000442,,,,,,,,,,,,,130.52492100000381,130.5409537999658,130.85078239999712,left,0,0.2991106000263244,None,131.35827259998769,131.34537910000654,131.3454092000029,None,,,,,,,,pilot,001,2026-04-19_11h15.56.386,midterm_project,,2026.1.1,59.854362371395496,2026-04-19 11h15.56.619290 +0800,
63,27,1,12,0,feature,left,,,,,right,0,0.2990797000238672,None,None,,,,,,,,,,,1,27,63,16,131.35827259998769,,,,,,,,,,,,,,,,,,,131.34561169997323,131.35827259998769,131.84524529997725,,,,,,,,,,,132.19583039998543,132.20806440000888,132.69550719996914,131.8908105000155,,,,,,,,,,,,131.86806419998175,131.8908105000155,132.1957693999866,right,0,0.2990797000238672,None,132.7081424999633,132.69554970000172,132.69558289996348,None,,,,,,,,pilot,001,2026-04-19_11h15.56.386,midterm_project,,2026.1.1,59.854362371395496,2026-04-19 11h15.56.619290 +0800,
64,28,1,4,1,feature,right,,,,,right,1,0.15307669999310747,None,None,,,,,,,,,,,1,28,64,12,132.7081424999633,,,,,,,,,,,,,,,,,,,132.69578999996884,132.7081424999633,133.19535190000897,,,,,,,,,,,133.3785932000028,133.39113549998729,133.87854579999112,133.2241304999916,,,,,,,,,,,,133.20251199998893,133.2241304999916,133.37851760000922,right,1,0.15307669999310747,None,133.89151079999283,133.87859769997885,133.8786288999836,None,,,,,,,,pilot,001,2026-04-19_11h15.56.386,midterm_project,,2026.1.1,59.854362371395496,2026-04-19 11h15.56.619290 +0800,
65,29,1,4,0,feature,left,,,,,right,0,0.2824073000228964,None,None,,,,,,,,,,,1,29,65,3,133.89151079999283,,,,,,,,,,,,,,,,,,,133.87882360001095,133.89151079999283,134.37889839999843,,,,,,,,,,,134.69412539998302,134.70787019998534,135.19433719996596,,,,,,,,,,,,,134.38784209999721,134.4071717999759,134.69406040001195,right,0,0.2824073000228964,None,,135.19438100000843,135.1944121000124,None,,,,,,,,pilot,001,2026-04-19_11h15.56.386,midterm_project,,2026.1.1,59.854362371395496,2026-04-19 11h15.56.619290 +0800,
66,30,1,12,1,conjunction,right,,,,,right,1,0.1866308000171557,None,None,,,,,,,,,,,1,30,66,19,135.20824050001102,,,,,,,,,,,,,,,,,,,135.1945873000077,135.20824050001102,135.69575559999794,,,,,,,,,,,135.92934480000986,135.94106919999467,136.42858199996408,,,,,,,,,,,,,135.72807229997125,135.7404640999739,135.92926910001552,right,1,0.1866308000171557,None,136.44103619997622,136.42862369999057,136.42865720001282,None,,,,,,,,pilot,001,2026-04-19_11h15.56.386,midterm_project,,2026.1.1,59.854362371395496,2026-04-19 11h15.56.619290 +0800,
67,31,1,24,1,conjunction,right,,,,,right,1,0.29509650002000853,None,None,,,,,,,,,,,1,31,67,20,136.44103619997622,,,,,,,,,,,,,,,,,,,136.42886159999762,136.44103619997622,136.92826199997216,,,,,,,,,,,137.31212000001688,137.32409229996847,137.81081290001748,137.00709229998756,,,,,,,,,,,,136.98774199996842,137.00709229998756,137.31205800001044,right,1,0.29509650002000853,None,137.82427079998888,137.81084759999067,137.8108743999619,None,,,,,,,,pilot,001,2026-04-19_11h15.56.386,midterm_project,,2026.1.1,59.854362371395496,2026-04-19 11h15.56.619290 +0800,
68,32,1,12,1,feature,right,,,,,right,1,0.4950005999999121,None,None,,,,,,,,,,,1,32,68,13,137.82427079998888,,,,,,,,,,,,,,,,,,,137.81103959999746,137.82427079998888,138.31116889999248,,,,,,,,,,,138.86318390001543,138.87420789996395,139.3603883999749,,,,,,,,,,,,,138.33345049998024,138.35715270001674,138.86309220001567,right,1,0.4950005999999121,None,139.37425809999695,139.36042420001468,139.36045009997906,None,,,,,,,,pilot,001,2026-04-19_11h15.56.386,midterm_project,,2026.1.1,59.854362371395496,2026-04-19 11h15.56.619290 +0800,
69,33,1,4,1,conjunction,right,,,,,right,1,0.6121215999592096,None,None,,,,,,,,,,,1,33,69,6,139.37425809999695,,,,,,,,,,,,,,,,,,,139.36062429996673,139.37425809999695,139.86300680000568,,,,,,,,,,,140.51128520001657,140.52405229996657,141.01071860000957,,,,,,,,,,,,,139.87869029998546,139.89018449996365,140.51120339997578,right,1,0.6121215999592096,None,141.02388359996257,141.01075670000864,141.01078589999815,None,,,,,,,,pilot,001,2026-04-19_11h15.56.386,midterm_project,,2026.1.1,59.854362371395496,2026-04-19 11h15.56.619290 +0800,
70,34,1,4,0,conjunction,left,,,,,left,1,0.47539910004707053,None,None,,,,,,,,,,,1,34,70,9,141.02388359996257,,,,,,,,,,,,,,,,,,,141.01096260000486,141.02388359996257,141.51060629996937,,,,,,,,,,,142.02766149997478,142.0401144999778,142.52847159997327,141.539441299974,,,,,,,,,,,,141.52358629996888,141.539441299974,142.02757989999373,left,1,0.47539910004707053,None,,142.52852880000137,142.52857039996888,None,,,,,,,,pilot,001,2026-04-19_11h15.56.386,midterm_project,,2026.1.1,59.854362371395496,2026-04-19 11h15.56.619290 +0800,
71,35,1,24,0,conjunction,left,,,,,left,1,0.6209706999943592,None,None,,,,,,,,,,,1,35,71,23,142.54044909996446,,,,,,,,,,,,,,,,,,,142.5288008999778,142.54044909996446,143.0259975999943,,,,,,,,,,,143.7312055999646,143.73985209997045,144.22647080000024,143.10621900000842,,,,,,,,,,,,143.08389209996676,143.10621900000842,143.73112599999877,left,1,0.6209706999943592,None,144.2552438999992,144.22650290001184,144.22652719996404,None,,,,,,,,pilot,001,2026-04-19_11h15.56.386,midterm_project,,2026.1.1,59.854362371395496,2026-04-19 11h15.56.619290 +0800,
,,,,,,,,,,,,,,,,,,,,,,,,,,,,,,,,,,,,,,,,,,,,,,,,,,,,,,,,,,,,,,,,,,,,,,,,,,,,,,,,,,,,,,,,,,,,144.226625100011,144.2552438999992,147.2423628999968,pilot,001,2026-04-19_11h15.56.386,midterm_project,,2026.1.1,59.854362371395496,2026-04-19 11h15.56.619290 +0800,
